imageTest.thisRepN,imageTest.thisTrialN,imageTest.thisN,imageTest.thisIndex,trials.thisRepN,trials.thisTrialN,trials.thisN,trials.thisIndex,image_5.started,image_5.stopped,image_6.started,image_6.stopped,image_7.started,image_7.stopped,image_8.started,image_8.stopped,image_9.started,image_9.stopped,key_resp_7.keys,key_resp_7.rt,polygon_6.started,polygon_6.stopped,text_2.started,text_2.stopped,polygon.started,polygon.stopped,currTrial,imgName,soa,fixTime,jitter,stim.started,stim.stopped,mask.started,mask.stopped,mainTrial_response.keys,mainTrial_response.rt,mainTrial_response.started,mainTrial_response.stopped,text_3.started,text_3.stopped,participant,session,date,expName,psychopyVersion,frameRate,
0,0,0,0,,,,,22.650355800000398,None,22.650355800000398,None,22.650355800000398,None,22.650355800000398,None,22.650355800000398,None,1,0.8103750000000218,22.650355800000398,None,,,,,,,,,,,,,,,,,,,,natalie,001,2023_Apr_30_2121,meta-mask2,2021.2.3,59.915507151677915,
,,,,0,0,0,0,,,,,,,,,,,,,,,25.935095800000454,None,33.321601000000555,34.171973000000435,0,imgs/2_stim.png,0.10286630351281613,0.8496678464812408,0.23058909859367066,34.38869470000009,34.42202970000017,34.50545340000008,34.53880440000012,q,1.3394374999998035,33.504968199999894,None,,,natalie,001,2023_Apr_30_2121,meta-mask2,2021.2.3,59.915507151677915,
,,,,1,0,1,0,,,,,,,,,,,,,,,,,34.888916800000516,35.622553700000026,1,imgs/3_stim.png,0.11711996898701409,0.7249934465816585,0.23973247494441025,35.83938990000024,35.872722900000554,35.97269680000045,36.006092500000705,d,1.3572712000004685,35.0723723000001,None,,,natalie,001,2023_Apr_30_2121,meta-mask2,2021.2.3,59.915507151677915,
,,,,2,0,2,0,,,,,,,,,,,,,,,,,36.47291949999999,36.98982590000014,2,imgs/2_stim.png,0.11966575380445249,0.5127408204022965,0.35928558467518146,37.323298799999975,37.3566593000005,37.45667290000074,37.49002110000038,q,0.9742687999996633,36.65639570000076,None,,,natalie,001,2023_Apr_30_2121,meta-mask2,2021.2.3,59.915507151677915,
,,,,3,0,3,0,,,,,,,,,,,,,,,,,37.673510700000406,38.49045389999992,3,imgs/4_stim.png,0.029619853367356085,0.8020621824913369,0.01367802896719117,38.473807500000476,38.50712180000028,38.52382420000049,38.557199599999876,e,1.080724100000225,37.85685540000031,None,,,natalie,001,2023_Apr_30_2121,meta-mask2,2021.2.3,59.915507151677915,
,,,,4,0,4,0,,,,,,,,,,,,,,,,,38.974050499999976,39.74098950000007,4,imgs/4_stim.png,0.08350511677217565,0.7556888603594301,0.3995931324827196,40.10786890000054,40.141195600000174,40.207871700000396,40.241209400000116,e,1.2720595999999205,39.157444500000565,None,,,natalie,001,2023_Apr_30_2121,meta-mask2,2021.2.3,59.915507151677915,
,,,,5,0,5,0,,,,,,,,,,,,,,,,,40.47465230000034,41.44176020000032,5,imgs/1_stim.png,0.11649845263021946,0.9611315512542522,0.03006552329131784,41.44176020000032,41.475112300000546,41.575133900000765,41.608450300000186,a,1.5822275000000445,40.65808509999988,None,,,natalie,001,2023_Apr_30_2121,meta-mask2,2021.2.3,59.915507151677915,
,,,,6,0,6,0,,,,,,,,,,,,,,,,,42.27541090000068,42.875782699999945,6,imgs/3_stim.png,0.10516240599698755,0.5873352873575821,0.3979869311466726,43.242496000000756,43.27588180000021,43.35920530000021,43.39260230000036,d,1.1839126000004399,42.45882410000013,None,,,natalie,001,2023_Apr_30_2121,meta-mask2,2021.2.3,59.915507151677915,
,,,,7,0,7,0,,,,,,,,,,,,,,,,,43.67600829999992,44.64308890000029,7,imgs/4_stim.png,0.0572372881594719,0.9559338470306366,0.2013218533866123,44.80989529999988,44.84321810000074,44.89322930000071,44.926559200000156,e,1.2761917999996513,43.85941189999994,None,,,natalie,001,2023_Apr_30_2121,meta-mask2,2021.2.3,59.915507151677915,
,,,,8,0,8,0,,,,,,,,,,,,,,,,,45.17667260000053,None,8,imgs/1_stim.png,0.027901497913105845,0.523542341254746,0.3274556311748933,None,None,None,None,e,0.2834160000002157,45.36005850000038,None,,,natalie,001,2023_Apr_30_2121,meta-mask2,2021.2.3,59.915507151677915,
,,,,9,0,9,0,,,,,,,,,,,,,,,,,45.67687930000011,46.593996500000685,9,imgs/1_stim.png,0.020043021312963205,0.9132628455452323,0.309506125093044,46.87741040000037,46.91072440000062,46.92742150000049,46.96078639999996,a,2.5091985999997632,45.86030019999998,None,,,natalie,001,2023_Apr_30_2121,meta-mask2,2021.2.3,59.915507151677915,
,,,,10,0,10,0,,,,,,,,,,,,,,,,,48.41139600000042,49.1783776000002,10,imgs/2_stim.png,0.032853725732027494,0.7557925102847309,0.49823809301102623,49.64530740000009,49.67863600000055,49.69539600000007,49.72863110000071,q,1.7256685000002108,48.594830800000636,None,,,natalie,001,2023_Apr_30_2121,meta-mask2,2021.2.3,59.915507151677915,
,,,,11,0,11,0,,,,,,,,,,,,,,,,,50.36224370000036,50.94578720000027,11,imgs/3_stim.png,0.028710108797513137,0.583185705737944,0.2895263269515206,51.21257969999988,51.24593320000076,51.26259879999998,51.295955000000504,d,1.6588971999999558,50.545655900000384,None,,,natalie,001,2023_Apr_30_2121,meta-mask2,2021.2.3,59.915507151677915,
,,,,12,0,12,0,,,,,,,,,,,,,,,,,52.246381400000246,52.92997869999999,12,imgs/2_stim.png,0.11177888757141934,0.6790956044786329,0.48966986814591884,53.39690780000001,53.4302473000007,53.53025440000056,53.56359610000072,q,1.360659900000428,52.42976050000016,None,,,natalie,001,2023_Apr_30_2121,meta-mask2,2021.2.3,59.915507151677915,
,,,,13,0,13,0,,,,,,,,,,,,,,,,,53.83036070000071,54.547335600000224,13,imgs/1_stim.png,0.07680303266489732,0.7015159081451211,0.03561840829469709,54.547335600000224,54.58075150000059,54.64741800000047,54.68076030000066,a,1.1497512999994797,54.013823799999955,None,,,natalie,001,2023_Apr_30_2121,meta-mask2,2021.2.3,59.915507151677915,
,,,,14,0,14,0,,,,,,,,,,,,,,,,,55.19765270000062,55.747863900000084,14,imgs/4_stim.png,0.012375469284050722,0.5485528906939838,0.08559154602769031,55.81455940000069,55.84790690000045,55.84790690000045,55.88123760000053,e,1.848427900000388,55.38107140000011,None,,,natalie,001,2023_Apr_30_2121,meta-mask2,2021.2.3,59.915507151677915,
,,,,15,0,15,0,,,,,,,,,,,,,,,,,57.26520250000067,58.13220799999999,15,imgs/2_stim.png,0.018376808492647667,0.8574339299955862,0.41239983030807653,58.51571090000016,58.549101800000244,58.549101800000244,58.58245440000064,a,1.850781399999505,57.4485795999999,None,,,natalie,001,2023_Apr_30_2121,meta-mask2,2021.2.3,59.915507151677915,
,,,,16,0,16,0,,,,,,,,,,,,,,,,,59.33275490000051,60.24979110000004,16,imgs/1_stim.png,0.04953206768460412,0.9033531794807206,0.0022381784242282987,60.21652230000018,60.24979110000004,60.28318390000004,60.316540499999974,d,1.6953083999997034,59.51616860000013,None,,,natalie,001,2023_Apr_30_2121,meta-mask2,2021.2.3,59.915507151677915,
,,,,17,0,17,0,,,,,,,,,,,,,,,,,61.250254500000665,62.25067900000067,17,imgs/2_stim.png,0.04036732389855476,0.9880656840556932,0.16091498105599267,62.38408150000032,62.41744520000066,62.434129700000085,62.46745800000008,a,1.8006587999998374,61.433629300000575,None,,,natalie,001,2023_Apr_30_2121,meta-mask2,2021.2.3,59.915507151677915,
,,,,18,0,18,0,,,,,,,,,,,,,,,,,63.26773460000004,63.86800579999999,18,imgs/2_stim.png,0.11404054812067121,0.5932548145333529,0.26678261728321473,64.10144220000075,64.13479920000009,64.25153360000058,64.28484180000032,q,1.0240229999999428,63.45122760000049,None,,,natalie,001,2023_Apr_30_2121,meta-mask2,2021.2.3,59.915507151677915,
,,,,19,0,19,0,,,,,,,,,,,,,,,,,64.51832710000053,65.25196120000055,19,imgs/2_stim.png,0.10375017120401621,0.7303148903796273,0.1261963803796805,65.35201420000067,65.38533260000077,65.48539680000067,65.5187463000002,q,2.1380339000006643,64.70177020000028,None,,,natalie,001,2023_Apr_30_2121,meta-mask2,2021.2.3,59.915507151677915,
,,,,20,0,20,0,,,,,,,,,,,,,,,,,66.88602880000053,67.81970189999993,20,imgs/2_stim.png,0.10741505918334825,0.9309923745584974,0.4197808041338807,68.219873,68.25320850000026,68.3365889000006,68.36998370000038,q,2.153129700000136,67.06942130000061,None,,,natalie,001,2023_Apr_30_2121,meta-mask2,2021.2.3,59.915507151677915,
,,,,21,0,21,0,,,,,,,,,,,,,,,,,69.27032790000067,69.90395460000036,21,imgs/4_stim.png,0.09546195902584703,0.6276939431301746,0.39012456737849727,70.27079430000049,70.3042129000005,70.38750010000058,70.4208634000006,e,1.261852099999487,69.45375280000007,None,,,natalie,001,2023_Apr_30_2121,meta-mask2,2021.2.3,59.915507151677915,
,,,,22,0,22,0,,,,,,,,,,,,,,,,,70.75432700000056,71.58801470000071,22,imgs/3_stim.png,0.061067328362355025,0.8241967400404782,0.04177717184057228,71.60467640000024,71.63803189999999,71.68808669999999,71.72143800000049,d,1.0395487000005232,70.93777870000031,None,,,natalie,001,2023_Apr_30_2121,meta-mask2,2021.2.3,59.915507151677915,
,,,,23,0,23,0,,,,,,,,,,,,,,,,,72.0215392,72.75514199999998,23,imgs/3_stim.png,0.11499305469026352,0.7268934901519143,0.4170111585361818,73.13867269999992,73.17201530000057,73.28876490000039,73.32213150000007,d,1.3393513999999413,72.20493110000007,None,,,natalie,001,2023_Apr_30_2121,meta-mask2,2021.2.3,59.915507151677915,
,,,,24,0,24,0,,,,,,,,,,,,,,,,,73.58885929999997,74.2558552999999,24,imgs/4_stim.png,0.08228164780979856,0.6608247390101253,0.2664772855676983,74.5059897000001,74.53934990000016,74.60600040000008,74.63934360000076,e,1.9990398999998433,73.77226109999992,None,,,natalie,001,2023_Apr_30_2121,meta-mask2,2021.2.3,59.915507151677915,
,,,,25,0,25,0,,,,,,,,,,,,,,,,,75.8065260000003,76.80688220000047,25,imgs/1_stim.png,0.09026949808398231,0.9921892731019721,0.14033443420439906,76.9236122000002,76.95696090000001,77.02369460000045,77.05703190000077,a,1.5177311999996164,75.98994250000032,None,,,natalie,001,2023_Apr_30_2121,meta-mask2,2021.2.3,59.915507151677915,
,,,,26,0,26,0,,,,,,,,,,,,,,,,,77.54053640000075,78.10750080000071,26,imgs/1_stim.png,0.03096274749609086,0.5607043841199695,0.24465034826895748,78.32422060000044,78.35760570000002,78.37427930000013,78.40761939999993,q,1.660677900000337,77.72396090000075,None,,,natalie,001,2023_Apr_30_2121,meta-mask2,2021.2.3,59.915507151677915,
,,,,27,0,27,0,,,,,,,,,,,,,,,,,79.42469820000042,80.35848400000032,27,imgs/2_stim.png,0.07551827848521889,0.9256420715763536,0.05054798357345197,80.37513260000014,80.40847960000065,80.4751423000007,80.5085394000007,a,2.044390399999429,79.60812900000019,None,,,natalie,001,2023_Apr_30_2121,meta-mask2,2021.2.3,59.915507151677915,
,,,,28,0,28,0,,,,,,,,,,,,,,,,,81.69232230000034,82.3759484000002,28,imgs/1_stim.png,0.04379548291743718,0.6763716822458801,0.3727188646682897,82.72618469999998,82.75948340000014,82.79280319999998,82.82615979999991,q,2.8018303999997443,81.8757843000003,None,,,natalie,001,2023_Apr_30_2121,meta-mask2,2021.2.3,59.915507151677915,
,,,,29,0,29,0,,,,,,,,,,,,,,,,,84.71036210000057,85.27720000000045,29,imgs/2_stim.png,0.04887270397119248,0.5658842435688355,0.07269159556455168,85.32725389999996,85.36061150000023,85.39395090000016,85.42729820000022,a,1.0157815000002302,84.89370690000032,None,,,natalie,001,2023_Apr_30_2121,meta-mask2,2021.2.3,59.915507151677915,
,,,,30,0,30,0,,,,,,,,,,,,,,,,,85.94418860000042,86.57778750000034,30,imgs/4_stim.png,0.028982536060245347,0.6179400385439031,0.42660467566144633,86.96126320000076,86.99461539999993,87.01125670000056,87.04479530000026,e,1.3709334999994098,86.12759610000012,None,,,natalie,001,2023_Apr_30_2121,meta-mask2,2021.2.3,59.915507151677915,
,,,,31,0,31,0,,,,,,,,,,,,,,,,,87.54483510000045,88.1284456000003,31,imgs/3_stim.png,0.07015498035109319,0.5699377355130927,0.3568093782033603,88.44525620000059,88.47859430000062,88.54529290000028,88.57864980000068,d,1.1131576000007044,87.72825629999988,None,,,natalie,001,2023_Apr_30_2121,meta-mask2,2021.2.3,59.915507151677915,
,,,,32,0,32,0,,,,,,,,,,,,,,,,,88.87877170000047,89.82914640000035,32,imgs/4_stim.png,0.03194405241223483,0.9468133954524598,0.07672796250362884,89.87917410000045,89.91255750000073,89.92922090000047,89.96258949999992,a,1.5893765000000712,89.06215359999987,None,,,natalie,001,2023_Apr_30_2121,meta-mask2,2021.2.3,59.915507151677915,
,,,,33,0,33,0,,,,,,,,,,,,,,,,,90.69620120000036,91.46323030000076,33,imgs/2_stim.png,0.09323815051488872,0.7568941096425864,0.2871138929447389,91.71337089999997,91.74666490000072,91.83003670000016,91.86335150000014,q,1.2377778000000035,90.87962289999996,None,,,natalie,001,2023_Apr_30_2121,meta-mask2,2021.2.3,59.915507151677915,
,,,,34,0,34,0,,,,,,,,,,,,,,,,,92.16350370000055,92.71382390000053,34,imgs/4_stim.png,0.11957022245129428,0.536248892007261,0.06823356170169992,92.74707170000056,92.78040910000072,92.88045630000033,92.91388410000036,a,1.6867468999998891,92.34694200000013,None,,,natalie,001,2023_Apr_30_2121,meta-mask2,2021.2.3,59.915507151677915,
,,,,35,0,35,0,,,,,,,,,,,,,,,,,94.08101660000011,94.59785730000021,35,imgs/4_stim.png,0.017217732858053923,0.5103050650504148,0.34594009828700634,94.91465960000005,94.94801470000039,94.94801470000039,94.98138970000036,d,2.1789672999993854,94.26438330000019,None,,,natalie,001,2023_Apr_30_2121,meta-mask2,2021.2.3,59.915507151677915,
,,,,36,0,36,0,,,,,,,,,,,,,,,,,96.4820064000005,97.2823584000007,36,imgs/3_stim.png,0.11959344370144614,0.7888154509047242,0.34676169143103786,97.59915060000003,97.6325538000001,97.73263880000013,97.76593279999997,d,1.4033026999995855,96.66541289999986,None,,,natalie,001,2023_Apr_30_2121,meta-mask2,2021.2.3,59.915507151677915,
,,,,37,0,37,0,,,,,,,,,,,,,,,,,98.11603930000001,99.11647090000042,37,imgs/2_stim.png,0.03835006209173459,0.99670891825992,0.2774376069251967,99.36660960000063,99.39999720000014,99.43327399999998,99.4666459,a,1.7731611999997767,98.29949860000033,None,,,natalie,001,2023_Apr_30_2121,meta-mask2,2021.2.3,59.915507151677915,
,,,,38,0,38,0,,,,,,,,,,,,,,,,,100.11693110000033,101.11736920000021,38,imgs/1_stim.png,0.08533352733153764,0.9863478093693216,0.33781447077036286,101.41748700000062,101.45084610000049,101.53415660000064,101.56751290000011,a,1.5512830999996368,100.30032000000028,None,,,natalie,001,2023_Apr_30_2121,meta-mask2,2021.2.3,59.915507151677915,
,,,,39,0,39,0,,,,,,,,,,,,,,,,,101.88432809999995,102.5012483999999,39,imgs/1_stim.png,0.05702889883801046,0.609232273128258,0.19724382378909688,102.66801610000039,102.70138270000007,102.7514000000001,102.78473470000063,a,1.5505972000000838,102.06777409999995,None,,,natalie,001,2023_Apr_30_2121,meta-mask2,2021.2.3,59.915507151677915,
,,,,40,0,40,0,,,,,,,,,,,,,,,,,103.65175400000044,104.63555180000003,40,imgs/3_stim.png,0.11070159156577768,0.9756244694386202,0.3545981145401254,104.96905080000033,105.00232480000068,105.08568150000065,105.11909220000052,d,1.4793868999995539,103.83515119999993,None,,,natalie,001,2023_Apr_30_2121,meta-mask2,2021.2.3,59.915507151677915,
,,,,41,0,41,0,,,,,,,,,,,,,,,,,105.35250750000068,106.31955480000033,41,imgs/3_stim.png,0.05699490821132255,0.9556219036012319,0.0816355908086161,106.36956290000035,106.40292020000015,106.45296839999992,106.4862905,q,2.2446579999996175,105.53591830000005,None,,,natalie,001,2023_Apr_30_2121,meta-mask2,2021.2.3,59.915507151677915,
,,,,42,0,42,0,,,,,,,,,,,,,,,,,107.82021669999995,108.40377059999992,42,imgs/1_stim.png,0.03558997099387937,0.5683938558784063,0.4601353145001086,108.83732670000063,108.87067040000056,108.88735580000048,108.92069480000009,a,1.5079256999997597,108.00363150000067,None,,,natalie,001,2023_Apr_30_2121,meta-mask2,2021.2.3,59.915507151677915,
,,,,43,0,43,0,,,,,,,,,,,,,,,,,109.55430510000042,110.40463320000072,43,imgs/2_stim.png,0.07739332936781929,0.8448844794794097,0.024546001406446583,110.40463320000072,110.43807220000053,110.50471190000007,110.53807420000066,a,1.7193311999999423,109.73775360000036,None,,,natalie,001,2023_Apr_30_2121,meta-mask2,2021.2.3,59.915507151677915,
,,,,44,0,44,0,,,,,,,,,,,,,,,,,111.48847350000051,112.12204290000045,44,imgs/4_stim.png,0.09727081680272553,0.6281703484109242,0.45043188689683783,112.5555617,112.58893780000017,112.67226800000026,112.70562920000066,e,1.3208176999996795,111.67187130000002,None,,,natalie,001,2023_Apr_30_2121,meta-mask2,2021.2.3,59.915507151677915,
,,,,45,0,45,0,,,,,,,,,,,,,,,,,113.03913450000073,113.93953200000033,45,imgs/2_stim.png,0.024322584372470632,0.8999432181220093,0.4804459784912964,114.40639980000014,114.43970470000022,114.43970470000022,114.47307020000062,q,2.2118428000003405,113.22252030000072,None,,,natalie,001,2023_Apr_30_2121,meta-mask2,2021.2.3,59.915507151677915,
,,,,46,0,46,0,,,,,,,,,,,,,,,,,115.47352560000036,116.09042520000003,46,imgs/1_stim.png,0.09312554017975594,0.6120458555591177,0.3245504056614198,116.39054260000012,116.42388610000035,116.50728280000021,116.54065460000038,a,1.2679815999999846,115.65694010000061,None,,,natalie,001,2023_Apr_30_2121,meta-mask2,2021.2.3,59.915507151677915,
,,,,47,0,47,0,,,,,,,,,,,,,,,,,116.95747500000016,117.79125920000024,47,imgs/3_stim.png,0.10457005848196278,0.8242426910719993,0.17114705336916086,117.94124720000036,117.97460630000023,118.05792460000066,118.09126980000019,d,1.2306990999995833,117.14090260000012,None,,,natalie,001,2023_Apr_30_2121,meta-mask2,2021.2.3,59.915507151677915,
,,,,48,0,48,0,,,,,,,,,,,,,,,,,118.40809350000018,119.10836240000026,48,imgs/4_stim.png,0.04637604098815465,0.6969002781629563,0.04286102001552483,119.12504450000051,119.15844509999988,119.19177930000023,119.22513620000063,a,1.7298936000006506,118.59148800000003,None,,,natalie,001,2023_Apr_30_2121,meta-mask2,2021.2.3,59.915507151677915,
,,,,49,0,49,0,,,,,,,,,,,,,,,,,120.35897079999995,121.009188,49,imgs/3_stim.png,0.05671037049215244,0.6448966493770796,0.045993857626418166,121.0258732000002,121.05920980000064,121.10923380000077,121.14261070000066,q,1.5571317000003546,120.54235630000039,None,,,natalie,001,2023_Apr_30_2121,meta-mask2,2021.2.3,59.915507151677915,
,,,,50,0,50,0,,,,,,,,,,,,,,,,,122.14303390000077,123.14348620000055,50,imgs/4_stim.png,0.012800632589669117,0.9936977059410133,0.2814046240854748,123.39354550000007,123.42689390000032,123.42689390000032,123.46025220000047,q,2.8219569000002593,122.32643000000007,None,,,natalie,001,2023_Apr_30_2121,meta-mask2,2021.2.3,59.915507151677915,
,,,,51,0,51,0,,,,,,,,,,,,,,,,,125.19434040000033,126.0279827000004,51,imgs/4_stim.png,0.04736508898705575,0.8331002400381342,0.1954070302412781,126.19481799999994,126.22809480000069,126.27814149999995,126.3114685999999,e,2.250631200000498,125.37775070000043,None,,,natalie,001,2023_Apr_30_2121,meta-mask2,2021.2.3,59.915507151677915,
,,,,52,0,52,0,,,,,,,,,,,,,,,,,127.66205660000014,128.4457179000001,52,imgs/3_stim.png,0.027772951809661557,0.7788237778120887,0.4811824017544874,128.8959347,128.9292355000007,128.9459282000007,128.9792838000003,q,2.7740733999999065,127.8454399000002,None,,,natalie,001,2023_Apr_30_2121,meta-mask2,2021.2.3,59.915507151677915,
,,,,53,0,53,0,,,,,,,,,,,,,,,,,130.6633279000007,131.6137346000005,53,imgs/1_stim.png,0.06482499877834452,0.9387338976695601,0.017752110060777204,131.59707890000027,131.63044420000006,131.6804589000003,131.71377500000017,a,1.414762100000189,130.84677980000015,None,,,natalie,001,2023_Apr_30_2121,meta-mask2,2021.2.3,59.915507151677915,
,,,,54,0,54,0,,,,,,,,,,,,,,,,,132.29739980000068,133.2811902000003,54,imgs/2_stim.png,0.04223602647486456,0.9801480589367275,0.17420394522942062,133.43124760000046,133.46462000000065,133.49797170000056,133.53132559999995,q,1.757559300000139,132.48077290000037,None,,,natalie,001,2023_Apr_30_2121,meta-mask2,2021.2.3,59.915507151677915,
,,,,55,0,55,0,,,,,,,,,,,,,,,,,134.28161790000013,134.89851410000028,55,imgs/2_stim.png,0.1143644990826287,0.6148155695540778,0.4330345626255883,135.31538679999994,135.34872030000042,135.4487693000001,135.48213790000045,q,1.3842446999997264,134.46501979999994,None,,,natalie,001,2023_Apr_30_2121,meta-mask2,2021.2.3,59.915507151677915,
,,,,56,0,56,0,,,,,,,,,,,,,,,,,135.88221570000042,136.5325111000002,56,imgs/3_stim.png,0.011804655974248133,0.6466294764763209,0.2941482637575593,136.79935060000025,136.8326775000005,136.8326775000005,136.86603170000035,d,1.6838055000007444,136.06565219999993,None,,,natalie,001,2023_Apr_30_2121,meta-mask2,2021.2.3,59.915507151677915,
,,,,57,0,57,0,,,,,,,,,,,,,,,,,137.7830610000001,138.75015280000025,57,imgs/1_stim.png,0.07682813477086703,0.9560571101037539,0.028838713817491535,138.75015280000025,138.78348379999989,138.85018710000077,138.88360490000014,a,1.3561348000002909,137.96651100000054,None,,,natalie,001,2023_Apr_30_2121,meta-mask2,2021.2.3,59.915507151677915,
,,,,58,0,58,0,,,,,,,,,,,,,,,,,139.36707819999992,140.15075930000057,58,imgs/3_stim.png,0.08689800900026232,0.7789300537718908,0.17533192633661887,140.30079060000025,140.3341393999999,140.41756170000008,140.45088770000075,a,1.6853062999998656,139.55048390000047,None,,,natalie,001,2023_Apr_30_2121,meta-mask2,2021.2.3,59.915507151677915,
,,,,59,0,59,0,,,,,,,,,,,,,,,,,141.26789259999987,142.2016180999999,59,imgs/2_stim.png,0.0974426108177942,0.927043933933443,0.48720028654395947,142.66851570000017,142.70185540000057,142.7852284999999,142.8185852000006,q,1.6332777999996324,141.4513065000001,None,,,natalie,001,2023_Apr_30_2121,meta-mask2,2021.2.3,59.915507151677915,
,,,,60,0,60,0,,,,,,,,,,,,,,,,,143.11867380000058,143.7356064000005,60,imgs/3_stim.png,0.11065373855524509,0.6036691602311364,0.20273231191050362,143.90234940000028,143.9356972000005,144.03572540000005,144.0690800000002,d,1.07926309999948,143.3021148000007,None,,,natalie,001,2023_Apr_30_2121,meta-mask2,2021.2.3,59.915507151677915,
,,,,61,0,61,0,,,,,,,,,,,,,,,,,144.41924019999988,145.03621180000027,61,imgs/3_stim.png,0.039037081952261354,0.6059330157942435,0.15522580538351038,145.15287940000053,145.18627560000004,145.2196195000006,145.25298509999993,q,1.6028740000001562,144.60267620000013,None,,,natalie,001,2023_Apr_30_2121,meta-mask2,2021.2.3,59.915507151677915,
,,,,62,0,62,0,,,,,,,,,,,,,,,,,146.25335690000065,146.97037350000028,62,imgs/2_stim.png,0.04282687236016552,0.7059361899553356,0.3341245819043765,147.27046360000077,147.3038004,147.3372073999999,147.37049970000044,q,1.428820099999939,146.43678470000032,None,,,natalie,001,2023_Apr_30_2121,meta-mask2,2021.2.3,59.915507151677915,
,,,,63,0,63,0,,,,,,,,,,,,,,,,,147.90405510000073,148.73779400000058,63,imgs/3_stim.png,0.09777063619359515,0.8301418027743834,0.2213844791409632,148.93782910000027,148.97124050000002,149.05460250000033,149.08796080000047,d,1.6320956999998089,148.08750560000044,None,,,natalie,001,2023_Apr_30_2121,meta-mask2,2021.2.3,59.915507151677915,
,,,,64,0,64,0,,,,,,,,,,,,,,,,,149.75485600000047,150.52184149999994,64,imgs/2_stim.png,0.030500048023209367,0.7672898796970082,0.13361171299800106,150.63862440000048,150.67193210000005,150.68864010000016,150.7219842000004,e,1.850196300000789,149.93828010000016,None,,,natalie,001,2023_Apr_30_2121,meta-mask2,2021.2.3,59.915507151677915,
,,,,65,0,65,0,,,,,,,,,,,,,,,,,151.8224783000005,152.62414230000013,65,imgs/3_stim.png,0.08053052717821385,0.801244017566447,0.4606116432658281,153.07298020000053,153.10633959999996,153.1730301000007,153.2063674000001,d,1.602748000000247,152.00581910000074,None,,,natalie,001,2023_Apr_30_2121,meta-mask2,2021.2.3,59.915507151677915,
,,,,66,0,66,0,,,,,,,,,,,,,,,,,153.65654950000044,154.2901754000004,66,imgs/4_stim.png,0.11593121636523013,0.6233776497434038,0.00583685853890914,154.27348000000075,154.30682500000057,154.40689910000037,154.44024220000028,e,1.386594800000239,153.84001400000034,None,,,natalie,001,2023_Apr_30_2121,meta-mask2,2021.2.3,59.915507151677915,
,,,,67,0,67,0,,,,,,,,,,,,,,,,,155.27389530000073,156.19103390000055,67,imgs/3_stim.png,0.04357730175899605,0.9061261101440998,0.03579944030843274,156.19103390000055,156.22431099999994,156.25764680000066,156.29100150000068,a,1.5022718999998688,155.457316,None,,,natalie,001,2023_Apr_30_2121,meta-mask2,2021.2.3,59.915507151677915,
,,,,68,0,68,0,,,,,,,,,,,,,,,,,157.00800040000013,157.84167830000024,68,imgs/2_stim.png,0.0762704651112371,0.8260382986587445,0.3691604103660878,158.19186510000054,158.2251965000005,158.27522070000032,158.30853620000016,q,1.4045492000004742,157.19137279999995,None,,,natalie,001,2023_Apr_30_2121,meta-mask2,2021.2.3,59.915507151677915,
,,,,69,0,69,0,,,,,,,,,,,,,,,,,158.64202950000072,159.3923224,69,imgs/1_stim.png,0.06538282635655361,0.7502546051753822,0.35509693942111675,159.72581330000048,159.75918140000067,159.80934440000055,159.8425382000005,q,1.7410319000000527,158.82545800000025,None,,,natalie,001,2023_Apr_30_2121,meta-mask2,2021.2.3,59.915507151677915,
,,,,70,0,70,0,,,,,,,,,,,,,,,,,160.60955470000044,161.40988770000058,70,imgs/4_stim.png,0.09092729881563674,0.7973636728884166,0.22379434032299744,161.60993719999988,161.64328830000068,161.72671580000042,161.76004310000008,e,1.1725985000002765,160.7929555999999,None,,,natalie,001,2023_Apr_30_2121,meta-mask2,2021.2.3,59.915507151677915,
,,,,71,0,71,0,,,,,,,,,,,,,,,,,162.01011800000015,162.76049169999987,71,imgs/4_stim.png,0.047734432288658195,0.7400417585882315,0.27114655387969117,162.99388670000008,163.02722130000075,163.06056590000026,163.09394760000032,q,1.8530288000001747,162.19355110000015,None,,,natalie,001,2023_Apr_30_2121,meta-mask2,2021.2.3,59.915507151677915,
,,,,72,0,72,0,,,,,,,,,,,,,,,,,164.09434670000064,164.7113078000002,72,imgs/4_stim.png,0.08359309273307648,0.6081802136959238,0.44110754450245937,165.1281437000007,165.16148479999993,165.22816390000025,165.26149780000014,e,1.4907995000003211,164.27776070000073,None,,,natalie,001,2023_Apr_30_2121,meta-mask2,2021.2.3,59.915507151677915,
,,,,73,0,73,0,,,,,,,,,,,,,,,,,165.8118611,166.36198539999987,73,imgs/4_stim.png,0.04155754658668996,0.5407089402987522,0.04445674066982047,166.37868330000038,166.4120307000003,166.44535130000077,166.4787249000001,e,2.0235588999994434,165.9951469000007,None,,,natalie,001,2023_Apr_30_2121,meta-mask2,2021.2.3,59.915507151677915,
,,,,74,0,74,0,,,,,,,,,,,,,,,,,168.06274960000064,168.96314820000043,74,imgs/4_stim.png,0.09085681868116705,0.8962882870666145,0.1343115174608282,169.07985400000052,169.11317080000026,169.17988930000047,169.21323920000032,e,1.4604024999998728,168.24616420000075,None,,,natalie,001,2023_Apr_30_2121,meta-mask2,2021.2.3,59.915507151677915,
,,,,75,0,75,0,,,,,,,,,,,,,,,,,169.7467744000005,170.4471394000002,75,imgs/4_stim.png,0.0409801292882024,0.6917097345539749,0.2660427008263791,170.68050110000058,170.7138633000004,170.74728060000052,170.78062390000014,q,1.5584520000002158,169.9301943999999,None,,,natalie,001,2023_Apr_30_2121,meta-mask2,2021.2.3,59.915507151677915,
,,,,76,0,76,0,,,,,,,,,,,,,,,,,171.53089200000068,172.3311990000002,76,imgs/1_stim.png,0.04583914306778544,0.7902662496276271,0.23548340484610558,172.53133210000033,172.5646540000007,172.59799730000032,172.63137069999993,q,1.6843926999999894,171.7142813999999,None,,,natalie,001,2023_Apr_30_2121,meta-mask2,2021.2.3,59.915507151677915,
,,,,77,0,77,0,,,,,,,,,,,,,,,,,173.4316959000007,173.96528920000037,77,imgs/4_stim.png,0.011290358213611403,0.5293907795331161,0.2520801649858478,174.19871409999996,174.2320520000003,174.2320520000003,174.26537570000073,d,2.932295300000078,173.61512440000024,None,,,natalie,001,2023_Apr_30_2121,meta-mask2,2021.2.3,59.915507151677915,
,,,,78,0,78,0,,,,,,,,,,,,,,,,,176.58305960000052,177.09996090000004,78,imgs/2_stim.png,0.057133288517893066,0.5062183182890903,0.48098255846941906,177.55011640000066,177.58346210000036,177.63349040000048,177.66685770000004,q,1.2801692000002731,176.76649570000063,None,,,natalie,001,2023_Apr_30_2121,meta-mask2,2021.2.3,59.915507151677915,
,,,,79,0,79,0,,,,,,,,,,,,,,,,,178.0837119000007,179.03413480000017,79,imgs/4_stim.png,0.07762361554439286,0.9475542598857588,0.4445639565402341,179.45093630000065,179.48430960000042,179.5509759000006,179.58435129999998,e,2.347588999999971,178.26710490000005,None,,,natalie,001,2023_Apr_30_2121,meta-mask2,2021.2.3,59.915507151677915,
,,,,80,0,80,0,,,,,,,,,,,,,,,,,180.6514784000001,181.20168290000038,80,imgs/1_stim.png,0.10323433541912737,0.5428047870729077,0.32915509907151386,181.50183560000005,181.53523500000028,181.63523460000033,181.66859680000016,a,1.5076036999998905,180.83492150000075,None,,,natalie,001,2023_Apr_30_2121,meta-mask2,2021.2.3,59.915507151677915,
,,,,81,0,81,0,,,,,,,,,,,,,,,,,182.38552740000068,183.03582350000033,81,imgs/4_stim.png,0.0808672101417239,0.6488794121377395,0.27199546028719085,183.2859097999999,183.3192942000005,183.3860325000005,183.4193353999999,e,2.4576476000002003,182.56896660000075,None,,,natalie,001,2023_Apr_30_2121,meta-mask2,2021.2.3,59.915507151677915,
,,,,82,0,82,0,,,,,,,,,,,,,,,,,185.07001690000016,185.98712070000056,82,imgs/3_stim.png,0.11985026624639415,0.9041412023381501,0.45315449405888875,186.40394820000074,186.4372530999999,186.55402720000075,186.58734840000034,d,1.8211411000002045,185.25346880000052,None,,,natalie,001,2023_Apr_30_2121,meta-mask2,2021.2.3,59.915507151677915,
,,,,83,0,83,0,,,,,,,,,,,,,,,,,187.12093520000053,187.95460550000007,83,imgs/2_stim.png,0.08063614832229468,0.8198844889010477,0.34007491552223545,188.25469750000047,188.28808310000022,188.3547666000004,188.38815160000013,q,1.4412937999995847,187.3043043000007,None,,,natalie,001,2023_Apr_30_2121,meta-mask2,2021.2.3,59.915507151677915,
,,,,84,0,84,0,,,,,,,,,,,,,,,,,188.7882894000004,189.5052351000004,84,imgs/1_stim.png,0.011848431641706748,0.7062079074403266,0.45397816918851636,189.92207400000007,189.9554734000003,189.9554734000003,189.9888335000005,q,2.3179508000002897,188.97169030000077,None,,,natalie,001,2023_Apr_30_2121,meta-mask2,2021.2.3,59.915507151677915,
,,,,85,0,85,0,,,,,,,,,,,,,,,,,191.3226953000003,191.87296800000058,85,imgs/2_stim.png,0.10450720275181635,0.5379384805823046,0.12415878079303361,191.95632860000023,191.98976610000045,192.0897018000005,192.12308780000058,q,1.1604692999999315,191.50609330000043,None,,,natalie,001,2023_Apr_30_2121,meta-mask2,2021.2.3,59.915507151677915,
,,,,86,0,86,0,,,,,,,,,,,,,,,,,192.70665650000046,193.4736292000007,86,imgs/1_stim.png,0.0942003312361614,0.7585955362615904,0.24106953025656147,193.6904039000001,193.72374800000034,193.8071127000003,193.84059440000055,q,2.291408600000068,192.8901009000001,None,,,natalie,001,2023_Apr_30_2121,meta-mask2,2021.2.3,59.915507151677915,
,,,,87,0,87,0,,,,,,,,,,,,,,,,,195.22440140000072,195.94137760000012,87,imgs/4_stim.png,0.09078814991894568,0.7094882490952795,0.37808538011993176,196.29153290000067,196.32491320000008,196.4082126000003,196.44159160000072,e,1.7097870999996303,195.4078188000003,None,,,natalie,001,2023_Apr_30_2121,meta-mask2,2021.2.3,59.915507151677915,
,,,,88,0,88,0,,,,,,,,,,,,,,,,,197.15854900000068,197.80885579999995,88,imgs/2_stim.png,0.011852197307417689,0.6409691650627876,0.2954967698934111,198.0755807000005,198.1089337000003,198.1089337000003,198.14232970000012,q,1.7847280999994837,197.3419554000002,None,,,natalie,001,2023_Apr_30_2121,meta-mask2,2021.2.3,59.915507151677915,
,,,,89,0,89,0,,,,,,,,,,,,,,,,,199.15940610000052,200.09314249999989,89,imgs/1_stim.png,0.024672266215821533,0.9197620549847028,0.1102617591863922,200.17652500000077,200.20986850000008,200.20986850000008,200.24321190000046,d,1.7638033000002906,199.34284170000046,None,,,natalie,001,2023_Apr_30_2121,meta-mask2,2021.2.3,59.915507151677915,
,,,,90,0,90,0,,,,,,,,,,,,,,,,,201.14361200000076,201.84397700000045,90,imgs/4_stim.png,0.11293096653842682,0.6924007194176235,0.016217975807666596,201.82734000000073,201.86054870000044,201.9605760000004,201.99397640000007,a,3.0266397999994297,201.32699219999995,None,,,natalie,001,2023_Apr_30_2121,meta-mask2,2021.2.3,59.915507151677915,
,,,,91,0,91,0,,,,,,,,,,,,,,,,,204.39501819999987,205.02862390000064,91,imgs/1_stim.png,0.07450767225853888,0.6220917199623741,0.1227287758114986,205.1119406000007,205.14528980000068,205.21202450000055,205.24537170000076,a,1.3880333999995855,204.57837689999997,None,,,natalie,001,2023_Apr_30_2121,meta-mask2,2021.2.3,59.915507151677915,
,,,,92,0,92,0,,,,,,,,,,,,,,,,,206.01233000000047,206.879414,92,imgs/1_stim.png,0.07749744752387058,0.8601929659014059,0.41198988547628534,207.26285980000011,207.29621250000037,207.3629006000001,207.39624510000067,a,1.780797899999925,206.19577840000056,None,,,natalie,001,2023_Apr_30_2121,meta-mask2,2021.2.3,59.915507151677915,
,,,,93,0,93,0,,,,,,,,,,,,,,,,,208.01320870000018,208.76355580000018,93,imgs/4_stim.png,0.1125419648896799,0.7453229218782005,0.37636213253529943,209.1137023000001,209.14704500000062,209.24708340000052,209.2804614000006,q,2.13005880000037,208.19659370000045,None,,,natalie,001,2023_Apr_30_2121,meta-mask2,2021.2.3,59.915507151677915,
,,,,94,0,94,0,,,,,,,,,,,,,,,,,210.36416840000038,211.09786470000017,94,imgs/3_stim.png,0.11301128886212111,0.7331574994640548,0.3761421245056642,211.44800320000013,211.48135030000049,211.58139329999995,211.61476700000003,d,1.5579253999994762,210.54764299999988,None,,,natalie,001,2023_Apr_30_2121,meta-mask2,2021.2.3,59.915507151677915,
,,,,95,0,95,0,,,,,,,,,,,,,,,,,212.14833810000073,212.84864040000048,95,imgs/4_stim.png,0.04932781099294562,0.6936340532169414,0.3143633977937941,213.13205860000016,213.16543980000006,213.19877460000043,213.23213579999992,q,2.775638699999945,212.33176970000022,None,,,natalie,001,2023_Apr_30_2121,meta-mask2,2021.2.3,59.915507151677915,
,,,,96,0,96,0,,,,,,,,,,,,,,,,,215.14961459999995,215.8166140000003,96,imgs/3_stim.png,0.10305903855864687,0.6615414592387098,0.16671779014458465,215.96663770000032,215.9999484,216.083302,216.1166501000007,d,1.2313720000001922,215.33301800000027,None,,,natalie,001,2023_Apr_30_2121,meta-mask2,2021.2.3,59.915507151677915,
,,,,97,0,97,0,,,,,,,,,,,,,,,,,216.60021980000056,217.30050840000058,97,imgs/1_stim.png,0.06221069137790614,0.6880281509826779,0.152269017912034,217.41724840000006,217.45055500000035,217.50057760000072,217.5339909000004,a,1.4250953999999183,216.78361339999992,None,,,natalie,001,2023_Apr_30_2121,meta-mask2,2021.2.3,59.915507151677915,
,,,,98,0,98,0,,,,,,,,,,,,,,,,,218.25091750000047,218.96787440000026,98,imgs/2_stim.png,0.02282058302641951,0.701583992907357,0.2639300470687657,219.20143050000024,219.23467280000023,219.23467280000023,219.2679988,q,1.2432152000001224,218.43432680000024,None,,,natalie,001,2023_Apr_30_2121,meta-mask2,2021.2.3,59.915507151677915,
,,,,99,0,99,0,,,,,,,,,,,,,,,,,219.71822990000055,220.2851694000001,99,imgs/1_stim.png,0.1001756911997108,0.5676121708881899,0.19692022753779892,220.4685384000004,220.50192570000036,220.58528230000047,220.61864980000064,a,1.19494560000021,219.9016171000003,None,,,natalie,001,2023_Apr_30_2121,meta-mask2,2021.2.3,59.915507151677915,
,,,,,,,,,,,,,,,,,,,,,,,,,,,,,,,,,,,,,,,221.1188404000004,None,,,,,,,
