imageTest.thisRepN,imageTest.thisTrialN,imageTest.thisN,imageTest.thisIndex,trials.thisRepN,trials.thisTrialN,trials.thisN,trials.thisIndex,image_5.started,image_5.stopped,image_6.started,image_6.stopped,image_7.started,image_7.stopped,image_8.started,image_8.stopped,image_9.started,image_9.stopped,key_resp_7.keys,key_resp_7.rt,polygon_6.started,polygon_6.stopped,text_2.started,text_2.stopped,polygon.started,polygon.stopped,currTrial,imgName,soa,fixTime,jitter,stim.started,stim.stopped,mask.started,mask.stopped,mainTrial_response.keys,mainTrial_response.rt,mainTrial_response.started,mainTrial_response.stopped,text_3.started,text_3.stopped,participant,session,date,expName,psychopyVersion,frameRate,
0,0,0,0,,,,,23.486952600000222,None,23.486952600000222,None,23.486952600000222,None,23.486952600000222,None,23.486952600000222,None,1,2.1509019000004628,23.486952600000222,None,,,,,,,,,,,,,,,,,,,,stephen_7,001,2023_Apr_30_2213,meta-mask2,2021.2.3,59.95441066622542,
,,,,0,0,0,0,,,,,,,,,,,,,,,27.221925899999405,None,28.0722181000001,29.005992500000502,0,imgs/2_stim.png,0.075984627765531,0.9312415824938971,0.29126684496973954,29.272740200000044,29.30611610000051,29.3894607000002,29.422862299999906,q,1.5586960000000545,28.255670200000168,None,,,stephen_7,001,2023_Apr_30_2213,meta-mask2,2021.2.3,59.95441066622542,
,,,,1,0,1,0,,,,,,,,,,,,,,,,,29.856318199999805,30.74005699999907,1,imgs/3_stim.png,0.10916262457276359,0.8826843702605816,0.100144604640448,30.823397599999225,30.856748599999264,30.956793800000014,30.990172699999675,d,1.2496650000011869,30.039778899999874,None,,,stephen_7,001,2023_Apr_30_2213,meta-mask2,2021.2.3,59.95441066622542,
,,,,2,0,2,0,,,,,,,,,,,,,,,,,31.32362529999955,32.240744099999574,2,imgs/4_stim.png,0.03823088452317322,0.9044438942291715,0.3752034680929428,32.59086369999932,32.62416719999965,32.65759119999893,32.6909383000002,d,2.33037239999976,31.50706580000042,None,,,stephen_7,001,2023_Apr_30_2213,meta-mask2,2021.2.3,59.95441066622542,
,,,,3,0,3,0,,,,,,,,,,,,,,,,,33.87475129999984,34.524984899999254,3,imgs/4_stim.png,0.09932152904173502,0.65001503231146,0.38763360766247323,34.891878200000065,34.92517070000031,35.025235999999495,35.058587100000295,e,1.356292399999802,34.058138000000326,None,,,stephen_7,001,2023_Apr_30_2213,meta-mask2,2021.2.3,59.95441066622542,
,,,,4,0,4,0,,,,,,,,,,,,,,,,,35.458740000000034,36.25911099999939,4,imgs/1_stim.png,0.10483651819790454,0.7944022822618357,0.14121240234694027,36.375834500000565,36.40914309999971,36.50920339999902,36.54252929999893,a,1.5112697999993543,35.64212529999895,None,,,stephen_7,001,2023_Apr_30_2213,meta-mask2,2021.2.3,59.95441066622542,
,,,,5,0,5,0,,,,,,,,,,,,,,,,,37.19290309999997,38.01070780000009,5,imgs/4_stim.png,0.058806538693604034,0.8054490502748858,0.17018980632314384,38.143231000000014,38.17660009999963,38.24329769999895,38.27664639999966,e,1.2352969999992638,37.37624979999964,None,,,stephen_7,001,2023_Apr_30_2213,meta-mask2,2021.2.3,59.95441066622542,
,,,,6,0,6,0,,,,,,,,,,,,,,,,,38.64343009999902,39.560522499999934,6,imgs/1_stim.png,0.05089989767841063,0.9108484635250567,0.41909323220161837,39.96067670000048,39.99400939999941,40.04405290000068,40.077359400000205,a,1.6403542999996716,38.82684060000065,None,,,stephen_7,001,2023_Apr_30_2213,meta-mask2,2021.2.3,59.95441066622542,
,,,,7,0,7,0,,,,,,,,,,,,,,,,,40.510928499999864,41.31125249999968,7,imgs/4_stim.png,0.04027912155488728,0.7943757529868358,0.03817177961068374,41.327926100000695,41.361253699999,41.394646400000056,41.42795269999988,a,1.9331224000015936,40.694298000000344,None,,,stephen_7,001,2023_Apr_30_2213,meta-mask2,2021.2.3,59.95441066622542,
,,,,8,0,8,0,,,,,,,,,,,,,,,,,42.661892199999784,43.42882549999922,8,imgs/2_stim.png,0.0605072393224498,0.7676570986325348,0.20164706117691567,43.612294500000644,43.645561799999996,43.69563559999915,43.72894199999973,q,1.2262017000011838,42.84523219999937,None,,,stephen_7,001,2023_Apr_30_2213,meta-mask2,2021.2.3,59.95441066622542,
,,,,9,0,9,0,,,,,,,,,,,,,,,,,44.112442999999985,44.896137399999134,9,imgs/2_stim.png,0.08187756729693366,0.7719198623848251,0.4640201339461294,45.32965999999942,45.36300499999925,45.446414000000004,45.47970659999919,q,1.644640900000013,44.295911199998955,None,,,stephen_7,001,2023_Apr_30_2213,meta-mask2,2021.2.3,59.95441066622542,
,,,,10,0,10,0,,,,,,,,,,,,,,,,,45.97990849999951,46.73022669999955,10,imgs/1_stim.png,0.08632318490931189,0.7445833310890172,0.39175335705939884,47.09707419999904,47.13042350000069,47.213820700000724,47.24716289999924,a,1.463105999999243,46.16330779999953,None,,,stephen_7,001,2023_Apr_30_2213,meta-mask2,2021.2.3,59.95441066622542,
,,,,11,0,11,0,,,,,,,,,,,,,,,,,47.6640024999997,48.264222300000256,11,imgs/3_stim.png,0.10741686481778702,0.5890420163106518,0.3805502989850696,48.61442569999963,48.64771660000042,48.74781489999987,48.78118259999974,d,1.2940775999995822,47.84740029999921,None,,,stephen_7,001,2023_Apr_30_2213,meta-mask2,2021.2.3,59.95441066622542,
,,,,12,0,12,0,,,,,,,,,,,,,,,,,49.1813015000007,49.76488539999991,12,imgs/4_stim.png,0.013008759643793768,0.5728163808902571,0.25044459951305187,49.98161179999988,50.0150737999993,50.03168419999929,50.065037099999245,q,1.1797891999995045,49.36469339999894,None,,,stephen_7,001,2023_Apr_30_2213,meta-mask2,2021.2.3,59.95441066622542,
,,,,13,0,13,0,,,,,,,,,,,,,,,,,50.581924599999184,51.34890590000032,13,imgs/2_stim.png,0.013629721445159266,0.7626896108325558,0.3471988399654739,51.66571209999893,51.69906219999939,51.71570129999964,51.74908089999917,q,1.7121373999998468,50.765311799999836,None,,,stephen_7,001,2023_Apr_30_2213,meta-mask2,2021.2.3,59.95441066622542,
,,,,14,0,14,0,,,,,,,,,,,,,,,,,52.51609760000065,53.31643149999945,14,imgs/4_stim.png,0.08224859426923044,0.7935539722140846,0.34307817720899614,53.633182899999156,53.666590599999836,53.749984300000506,53.7833126000005,e,1.466946900000039,52.69946019999952,None,,,stephen_7,001,2023_Apr_30_2213,meta-mask2,2021.2.3,59.95441066622542,
,,,,15,0,15,0,,,,,,,,,,,,,,,,,54.20024190000004,55.10050299999966,15,imgs/4_stim.png,0.08926807549755854,0.8884971171262539,0.2376269003920909,55.30060400000002,55.33391780000056,55.43400389999988,55.46733949999907,e,1.4166552999995474,54.38354789999903,None,,,stephen_7,001,2023_Apr_30_2213,meta-mask2,2021.2.3,59.95441066622542,
,,,,16,0,16,0,,,,,,,,,,,,,,,,,55.834947600000305,56.50111800000013,16,imgs/3_stim.png,0.03392298698391281,0.6558306935313851,0.43909674806739807,56.91797910000059,56.951322700000674,56.98473319999903,57.018039900000076,d,1.4568407999995543,56.017559199999596,None,,,stephen_7,001,2023_Apr_30_2213,meta-mask2,2021.2.3,59.95441066622542,
,,,,17,0,17,0,,,,,,,,,,,,,,,,,57.51821380000001,58.45192820000011,17,imgs/4_stim.png,0.040689798832877544,0.92568032181666,0.4195802528878328,58.85213060000024,58.885583499999484,58.918793700000606,58.95218299999942,e,1.495776300000216,57.70162840000012,None,,,stephen_7,001,2023_Apr_30_2213,meta-mask2,2021.2.3,59.95441066622542,
,,,,18,0,18,0,,,,,,,,,,,,,,,,,59.23566899999969,59.985943899999256,18,imgs/4_stim.png,0.07307674904758173,0.7354255214161287,0.423964381655152,60.3694646999993,60.402763300000515,60.48614749999979,60.51948409999932,e,1.4084352999998373,59.41900960000021,None,,,stephen_7,001,2023_Apr_30_2213,meta-mask2,2021.2.3,59.95441066622542,
,,,,19,0,19,0,,,,,,,,,,,,,,,,,60.869731099999626,61.453214499999376,19,imgs/1_stim.png,0.019490661462556694,0.5716109144723694,0.06342185294107128,61.48661489999904,61.51991239999916,61.536611899999116,61.569959200000085,q,1.040429499998936,61.05305360000057,None,,,stephen_7,001,2023_Apr_30_2213,meta-mask2,2021.2.3,59.95441066622542,
,,,,20,0,20,0,,,,,,,,,,,,,,,,,62.1368564000004,62.97054659999958,20,imgs/4_stim.png,0.09929835266708896,0.8238151748109361,0.4805311694871367,63.420859500000006,63.45412919999944,63.55419789999905,63.58752470000036,e,1.5502085000007355,62.320232599999144,None,,,stephen_7,001,2023_Apr_30_2213,meta-mask2,2021.2.3,59.95441066622542,
,,,,21,0,21,0,,,,,,,,,,,,,,,,,63.90428950000023,64.58793159999914,21,imgs/2_stim.png,0.014845100093880507,0.6784164323840312,0.3807541973346728,64.9380758999996,64.97147439999935,64.98810009999943,65.02146949999951,q,1.1907635000006849,64.08767699999953,None,,,stephen_7,001,2023_Apr_30_2213,meta-mask2,2021.2.3,59.95441066622542,
,,,,22,0,22,0,,,,,,,,,,,,,,,,,65.32156889999897,65.85512720000042,22,imgs/4_stim.png,0.06066952617565845,0.5288457031921232,0.24121119853103745,66.07189809999909,66.10522320000018,66.17196019999938,66.20534980000048,e,0.9924215999999433,65.50502159999996,None,,,stephen_7,001,2023_Apr_30_2213,meta-mask2,2021.2.3,59.95441066622542,
,,,,23,0,23,0,,,,,,,,,,,,,,,,,66.5387654999995,67.2723618,23,imgs/4_stim.png,0.119553215694349,0.729466898703657,0.13143668540412629,67.38912010000058,67.42257789999894,67.53919469999892,67.5725395999998,q,1.058040300000357,66.72221569999965,None,,,stephen_7,001,2023_Apr_30_2213,meta-mask2,2021.2.3,59.95441066622542,
,,,,24,0,24,0,,,,,,,,,,,,,,,,,67.8226795999999,68.75634960000025,24,imgs/3_stim.png,0.0341674656874176,0.9184180795448116,0.14752552833232757,68.87310219999927,68.9064285000004,68.93974469999921,68.97313439999925,e,1.9222883000002184,68.00602479999907,None,,,stephen_7,001,2023_Apr_30_2213,meta-mask2,2021.2.3,59.95441066622542,
,,,,25,0,25,0,,,,,,,,,,,,,,,,,69.97357600000032,70.57384020000063,25,imgs/2_stim.png,0.08280248743720942,0.5872948615256549,0.25464222952346116,70.79062789999989,70.82388659999924,70.90730590000021,70.94065790000059,q,1.0313624999998865,70.1570069999998,None,,,stephen_7,001,2023_Apr_30_2213,meta-mask2,2021.2.3,59.95441066622542,
,,,,26,0,26,0,,,,,,,,,,,,,,,,,71.22408580000047,71.74095080000006,26,imgs/2_stim.png,0.029536683491133163,0.5121142113388908,0.49785597682242566,72.22453909999967,72.25783709999996,72.27453839999907,72.30790680000064,q,1.6550351000005321,71.40748789999998,None,,,stephen_7,001,2023_Apr_30_2213,meta-mask2,2021.2.3,59.95441066622542,
,,,,27,0,27,0,,,,,,,,,,,,,,,,,73.10821209999995,73.74182010000004,27,imgs/3_stim.png,0.06787458411120585,0.6293559728254046,0.2678352532191391,73.99196379999921,74.02528669999992,74.09197630000017,74.12533760000042,d,1.3192474999996193,73.29165309999917,None,,,stephen_7,001,2023_Apr_30_2213,meta-mask2,2021.2.3,59.95441066622542,
,,,,28,0,28,0,,,,,,,,,,,,,,,,,74.65890860000036,75.39255609999964,28,imgs/2_stim.png,0.05456828562503923,0.7243966831154571,0.16868183453592267,75.52594820000013,75.55928359999962,75.6259585000007,75.6593542999999,q,1.1694778000000952,74.84231720000025,None,,,stephen_7,001,2023_Apr_30_2213,meta-mask2,2021.2.3,59.95441066622542,
,,,,29,0,29,0,,,,,,,,,,,,,,,,,76.05949999999939,76.77648769999905,29,imgs/1_stim.png,0.10861085741283975,0.7026020349208997,0.23113994738210525,76.9765826999992,77.00992980000046,77.1099350000004,77.14329449999968,a,1.2084386000005907,76.24293360000047,None,,,stephen_7,001,2023_Apr_30_2213,meta-mask2,2021.2.3,59.95441066622542,
,,,,30,0,30,0,,,,,,,,,,,,,,,,,77.49345659999926,78.41057290000026,30,imgs/4_stim.png,0.10772532925040827,0.906332234438233,0.1455464725226137,78.52723630000037,78.56058420000045,78.66060749999997,78.69394769999963,e,1.2776033999998617,77.67687819999992,None,,,stephen_7,001,2023_Apr_30_2213,meta-mask2,2021.2.3,59.95441066622542,
,,,,31,0,31,0,,,,,,,,,,,,,,,,,78.99409039999955,79.96115259999897,31,imgs/4_stim.png,0.05190771121975397,0.9562468958317807,0.4168331230641425,80.3446688999993,80.37799169999926,80.42816259999927,80.46143510000002,e,1.5929567000002862,79.17749150000054,None,,,stephen_7,001,2023_Apr_30_2213,meta-mask2,2021.2.3,59.95441066622542,
,,,,32,0,32,0,,,,,,,,,,,,,,,,,80.81152549999933,81.39514570000028,32,imgs/2_stim.png,0.07680010040044556,0.575657366390941,0.3682923487610693,81.72857859999931,81.7619737999994,81.84532659999968,81.87873989999935,q,1.0733168999995542,80.99499139999898,None,,,stephen_7,001,2023_Apr_30_2213,meta-mask2,2021.2.3,59.95441066622542,
,,,,33,0,33,0,,,,,,,,,,,,,,,,,82.11211559999902,82.66234099999929,33,imgs/4_stim.png,0.1131187539415006,0.544224943510976,0.48560523067351374,83.12923430000046,83.16255069999897,83.27928919999977,83.31265530000019,e,1.3098095000004832,82.29549790000056,None,,,stephen_7,001,2023_Apr_30_2213,meta-mask2,2021.2.3,59.95441066622542,
,,,,34,0,34,0,,,,,,,,,,,,,,,,,83.64614599999913,84.61318609999944,34,imgs/1_stim.png,0.11432783928195259,0.9635908754146265,0.05625293136635401,84.64657160000024,84.6798562999993,84.79663710000023,84.82994030000009,a,1.2838092999991204,83.8294891000005,None,,,stephen_7,001,2023_Apr_30_2213,meta-mask2,2021.2.3,59.95441066622542,
,,,,35,0,35,0,,,,,,,,,,,,,,,,,85.14671970000018,85.84708879999926,35,imgs/2_stim.png,0.11422796116900566,0.6981950670416027,0.38449643335193184,86.21395999999913,86.24720870000056,86.34723080000003,86.38058479999927,q,1.198270599999887,85.33017429999927,None,,,stephen_7,001,2023_Apr_30_2213,meta-mask2,2021.2.3,59.95441066622542,
,,,,36,0,36,0,,,,,,,,,,,,,,,,,86.56401539999933,87.14760149999893,36,imgs/2_stim.png,0.031927884756467274,0.5683752438647869,0.41009206222737055,87.53115749999961,87.56446999999935,87.59781119999934,87.63115479999942,q,1.1130257999993773,86.74742300000071,None,,,stephen_7,001,2023_Apr_30_2213,meta-mask2,2021.2.3,59.95441066622542,
,,,,37,0,37,0,,,,,,,,,,,,,,,,,87.89795620000041,88.83167499999945,37,imgs/3_stim.png,0.04778564699865167,0.9325414104202576,0.2188617615677821,89.03180690000045,89.06510669999989,89.11511930000052,89.14842719999979,d,1.3640824999984034,88.08136939999895,None,,,stephen_7,001,2023_Apr_30_2213,meta-mask2,2021.2.3,59.95441066622542,
,,,,38,0,38,0,,,,,,,,,,,,,,,,,89.48195329999908,90.13224830000036,38,imgs/2_stim.png,0.028758565196524928,0.6509834050350934,0.2799240533601337,90.39896989999943,90.43230720000065,90.44898990000002,90.48233479999908,q,1.0590812000009464,89.66537459999927,None,,,stephen_7,001,2023_Apr_30_2213,meta-mask2,2021.2.3,59.95441066622542,
,,,,39,0,39,0,,,,,,,,,,,,,,,,,90.76583389999905,91.63287719999971,39,imgs/2_stim.png,0.02045815137399122,0.8648007438015068,0.166161154511349,91.78288509999948,91.81622779999998,91.8329462999991,91.86627299999964,q,1.154286899998624,90.9492420000006,None,,,stephen_7,001,2023_Apr_30_2213,meta-mask2,2021.2.3,59.95441066622542,
,,,,40,0,40,0,,,,,,,,,,,,,,,,,92.1497120999993,92.8167013000002,40,imgs/4_stim.png,0.11932601626258416,0.6647648380656105,0.032039456254636334,92.8333717000005,92.86669930000062,92.98342719999891,93.01678010000069,e,0.91624530000081,92.3331376999995,None,,,stephen_7,001,2023_Apr_30_2213,meta-mask2,2021.2.3,59.95441066622542,
,,,,41,0,41,0,,,,,,,,,,,,,,,,,93.28357209999922,93.81712990000051,41,imgs/2_stim.png,0.026607718840497112,0.5260448990628662,0.08838305353665815,93.88383839999915,93.9171525999991,93.93383429999994,93.96719800000028,q,0.9925190999983897,93.4669840000006,None,,,stephen_7,001,2023_Apr_30_2213,meta-mask2,2021.2.3,59.95441066622542,
,,,,42,0,42,0,,,,,,,,,,,,,,,,,94.5007057999992,95.46783279999909,42,imgs/3_stim.png,0.04433124609288922,0.9552819782161872,0.07198179520089981,95.50119040000027,95.53455159999976,95.58455409999988,95.61791169999924,d,1.2504276999989088,94.68415210000057,None,,,stephen_7,001,2023_Apr_30_2213,meta-mask2,2021.2.3,59.95441066622542,
,,,,43,0,43,0,,,,,,,,,,,,,,,,,95.96810129999903,96.93512980000014,43,imgs/2_stim.png,0.1052537669874106,0.9584531989342231,0.186381878631717,97.08517009999923,97.11854789999961,97.23527300000023,97.26857799999925,q,1.2979505999992398,96.15149609999935,None,,,stephen_7,001,2023_Apr_30_2213,meta-mask2,2021.2.3,59.95441066622542,
,,,,44,0,44,0,,,,,,,,,,,,,,,,,97.48539290000008,98.15233549999903,44,imgs/1_stim.png,0.09425043939241076,0.6538925586452384,0.034666269683925055,98.15233549999903,98.18563639999957,98.28570810000019,98.31906290000006,a,1.0984946000007767,97.66877609999938,None,,,stephen_7,001,2023_Apr_30_2213,meta-mask2,2021.2.3,59.95441066622542,
,,,,45,0,45,0,,,,,,,,,,,,,,,,,98.8025732999995,99.68628419999914,45,imgs/4_stim.png,0.0755543893381489,0.881127986596073,0.3861018123234535,100.05315080000037,100.08644689999892,100.15315639999972,100.18649539999933,e,1.4234675999996398,98.98601849999977,None,,,stephen_7,001,2023_Apr_30_2213,meta-mask2,2021.2.3,59.95441066622542,
,,,,46,0,46,0,,,,,,,,,,,,,,,,,100.45328449999943,101.0702326999999,46,imgs/2_stim.png,0.07638836059192151,0.6125307878295632,0.23000613544720389,101.27028160000009,101.30364390000068,101.3870394000005,101.42046739999932,q,0.9778900999990583,100.63669569999911,None,,,stephen_7,001,2023_Apr_30_2213,meta-mask2,2021.2.3,59.95441066622542,
,,,,47,0,47,0,,,,,,,,,,,,,,,,,101.6538158000003,102.53750509999918,47,imgs/3_stim.png,0.07883796664411377,0.8790219562506223,0.2932221406728665,102.80434210000021,102.83766859999923,102.92109209999944,102.95440439999948,d,1.286280700000134,101.83725149999918,None,,,stephen_7,001,2023_Apr_30_2213,meta-mask2,2021.2.3,59.95441066622542,
,,,,48,0,48,0,,,,,,,,,,,,,,,,,103.17112649999945,104.03817680000066,48,imgs/4_stim.png,0.10898961189217565,0.8527082175682671,0.23705054536227244,104.23827449999953,104.27169870000034,104.38834929999939,104.42180820000067,e,1.3159641000002011,103.35455159999947,None,,,stephen_7,001,2023_Apr_30_2213,meta-mask2,2021.2.3,59.95441066622542,
,,,,49,0,49,0,,,,,,,,,,,,,,,,,104.70513559999927,105.65556040000047,49,imgs/3_stim.png,0.07117247112265071,0.9428593259162963,0.3560176148879819,105.9890202000006,106.02241820000017,106.08910929999911,106.12247899999966,d,1.5556775000004563,104.88852290000068,None,,,stephen_7,001,2023_Apr_30_2213,meta-mask2,2021.2.3,59.95441066622542,
,,,,50,0,50,0,,,,,,,,,,,,,,,,,106.48919899999964,107.05617940000047,50,imgs/2_stim.png,0.049896664076488635,0.5581510949230565,0.4726300595142045,107.50634449999961,107.53965649999918,107.58969950000028,107.62307619999956,q,1.1629967999997461,106.67263579999963,None,,,stephen_7,001,2023_Apr_30_2213,meta-mask2,2021.2.3,59.95441066622542,
,,,,51,0,51,0,,,,,,,,,,,,,,,,,107.87315269999999,108.80686699999933,51,imgs/4_stim.png,0.08132374682020013,0.9278536964783191,0.35150452320480613,109.1403792000001,109.1736922,109.24040909999894,109.2737761999997,e,1.5938266000011936,108.05665570000019,None,,,stephen_7,001,2023_Apr_30_2213,meta-mask2,2021.2.3,59.95441066622542,
,,,,52,0,52,0,,,,,,,,,,,,,,,,,109.69058550000045,110.4075871999994,52,imgs/2_stim.png,0.031113288208918947,0.7063816895855184,0.42978603605238036,110.80777239999952,110.84111339999981,110.87447690000045,110.90779819999989,q,1.2454524999993737,109.87400700000035,None,,,stephen_7,001,2023_Apr_30_2213,meta-mask2,2021.2.3,59.95441066622542,
,,,,53,0,53,0,,,,,,,,,,,,,,,,,111.15791440000066,111.67480409999916,53,imgs/4_stim.png,0.0599016977823767,0.5093922493496799,0.42474634945584466,112.07496139999967,112.10828699999911,112.15830789999927,112.19167580000067,e,1.079098399999566,111.34129679999933,None,,,stephen_7,001,2023_Apr_30_2213,meta-mask2,2021.2.3,59.95441066622542,
,,,,54,0,54,0,,,,,,,,,,,,,,,,,112.45848549999937,113.12538739999945,54,imgs/1_stim.png,0.08381367238900415,0.6541747207029893,0.3930790793918113,113.4922461999995,113.52565859999959,113.60893109999961,113.64228619999994,a,1.403922600000442,112.6418403000007,None,,,stephen_7,001,2023_Apr_30_2213,meta-mask2,2021.2.3,59.95441066622542,
,,,,55,0,55,0,,,,,,,,,,,,,,,,,114.092496199999,114.6260499,55,imgs/3_stim.png,0.07754695557187273,0.521127573248555,0.3258408795677355,114.92616929999895,114.95953499999996,115.02626480000072,115.05960659999982,d,1.057546199999706,114.27586920000067,None,,,stephen_7,001,2023_Apr_30_2213,meta-mask2,2021.2.3,59.95441066622542,
,,,,56,0,56,0,,,,,,,,,,,,,,,,,115.37637829999949,116.22674519999964,56,imgs/4_stim.png,0.08252795185638992,0.8371138464463552,0.046092396188246454,116.24339300000065,116.27675979999913,116.36010870000064,116.39347090000047,e,1.1030133000003843,115.55977410000014,None,,,stephen_7,001,2023_Apr_30_2213,meta-mask2,2021.2.3,59.95441066622542,
,,,,57,0,57,0,,,,,,,,,,,,,,,,,116.71029490000001,117.67734360000031,57,imgs/3_stim.png,0.11836110719928501,0.9635522313773075,0.01600914306349671,117.67734360000031,117.71075969999947,117.82743370000026,117.86080849999962,d,1.204879199998686,116.8937150999991,None,,,stephen_7,001,2023_Apr_30_2213,meta-mask2,2021.2.3,59.95441066622542,
,,,,58,0,58,0,,,,,,,,,,,,,,,,,118.14422849999937,118.6611439999997,58,imgs/1_stim.png,0.1167414062098633,0.5154630814675693,0.324271388797385,118.96124000000054,118.9946003999994,119.11131179999938,119.14466139999968,q,0.9568048000000999,118.32765990000007,None,,,stephen_7,001,2023_Apr_30_2213,meta-mask2,2021.2.3,59.95441066622542,
,,,,59,0,59,0,,,,,,,,,,,,,,,,,119.32808010000008,119.94498369999928,59,imgs/2_stim.png,0.10867456042980482,0.6163073718237339,0.3652888311222927,120.29515829999946,120.32851019999907,120.4286333,120.4618616000007,q,1.0840747000002011,119.51149429999896,None,,,stephen_7,001,2023_Apr_30_2213,meta-mask2,2021.2.3,59.95441066622542,
,,,,60,0,60,0,,,,,,,,,,,,,,,,,120.62863239999933,121.16216109999914,60,imgs/2_stim.png,0.08120348090773297,0.5196747958610278,0.19678483461930685,121.32894060000035,121.3622875000001,121.44566320000013,121.47899039999902,q,0.9724625999988348,120.81201089999922,None,,,stephen_7,001,2023_Apr_30_2213,meta-mask2,2021.2.3,59.95441066622542,
,,,,61,0,61,0,,,,,,,,,,,,,,,,,121.8291408999994,122.34603229999993,61,imgs/4_stim.png,0.035155837131211475,0.5143769226971684,0.28212894978607395,122.61278839999977,122.6461775000007,122.67953420000049,122.71284369999921,e,0.9737215000004653,122.01275050000004,None,,,stephen_7,001,2023_Apr_30_2213,meta-mask2,2021.2.3,59.95441066622542,
,,,,62,0,62,0,,,,,,,,,,,,,,,,,123.02967059999901,123.84664879999946,62,imgs/3_stim.png,0.017868042843750785,0.8032572263487239,0.14221583056304188,123.94668739999906,123.98003169999902,123.99674620000042,124.03010129999893,d,1.1963722000000416,123.21312190000026,None,,,stephen_7,001,2023_Apr_30_2213,meta-mask2,2021.2.3,59.95441066622542,
,,,,63,0,63,0,,,,,,,,,,,,,,,,,124.44690489999994,124.96379669999988,63,imgs/1_stim.png,0.116479509723367,0.5130990429333265,0.33228050810169746,125.28062580000005,125.313992899999,125.43077989999983,125.4640287000002,a,1.0740966000012122,124.63033580000047,None,,,stephen_7,001,2023_Apr_30_2213,meta-mask2,2021.2.3,59.95441066622542,
,,,,64,0,64,0,,,,,,,,,,,,,,,,,125.74749469999915,126.54784599999948,64,imgs/2_stim.png,0.05008175017098168,0.7929685853797745,0.11745646363888629,126.63125229999969,126.66457769999943,126.71456869999929,126.74793390000013,q,1.1176130999992893,125.93088689999968,None,,,stephen_7,001,2023_Apr_30_2213,meta-mask2,2021.2.3,59.95441066622542,
,,,,65,0,65,0,,,,,,,,,,,,,,,,,127.08142620000035,127.74836080000023,65,imgs/3_stim.png,0.09147125320804426,0.6679403028660689,0.2634332011815276,127.99847240000054,128.031800499999,128.1151790999993,128.1485417999993,d,1.158460799999375,127.26482790000045,None,,,stephen_7,001,2023_Apr_30_2213,meta-mask2,2021.2.3,59.95441066622542,
,,,,66,0,66,0,,,,,,,,,,,,,,,,,128.4819991000004,129.09890520000044,66,imgs/4_stim.png,0.08134416212561162,0.6057476961538667,0.3026709067373317,129.38238889999957,129.41573939999944,129.48246289999952,129.51578429999972,e,1.104280800000197,128.66539340000054,None,,,stephen_7,001,2023_Apr_30_2213,meta-mask2,2021.2.3,59.95441066622542,
,,,,67,0,67,0,,,,,,,,,,,,,,,,,129.8159259999993,130.33279389999916,67,imgs/3_stim.png,0.09649762143202398,0.5095596769835753,0.14653873452177024,130.4495050000005,130.48283160000028,130.58291110000027,130.6162516000004,d,0.8981197000011889,129.99931780000043,None,,,stephen_7,001,2023_Apr_30_2213,meta-mask2,2021.2.3,59.95441066622542,
,,,,68,0,68,0,,,,,,,,,,,,,,,,,130.93304229999922,131.46665679999933,68,imgs/1_stim.png,0.05363854283537664,0.5305617803016847,0.36504460827391605,131.81676089999928,131.85010109999894,131.90009999999893,131.93347089999952,a,1.1919562999992195,131.1164735000002,None,,,stephen_7,001,2023_Apr_30_2213,meta-mask2,2021.2.3,59.95441066622542,
,,,,69,0,69,0,,,,,,,,,,,,,,,,,132.35035020000032,133.3173872999996,69,imgs/3_stim.png,0.03281452381401805,0.9648764335059632,0.02440455934238922,133.3173872999996,133.350778,133.3841042999993,133.4174652999991,d,2.037047800000437,132.53377360000013,None,,,stephen_7,001,2023_Apr_30_2213,meta-mask2,2021.2.3,59.95441066622542,
,,,,70,0,70,0,,,,,,,,,,,,,,,,,134.61797490000026,135.31827750000048,70,imgs/4_stim.png,0.017694494687249093,0.6961024738202707,0.3580403242481837,135.65175739999904,135.68506419999903,135.70177370000056,135.735126399999,e,1.2701598000003287,134.8014559000003,None,,,stephen_7,001,2023_Apr_30_2213,meta-mask2,2021.2.3,59.95441066622542,
,,,,71,0,71,0,,,,,,,,,,,,,,,,,136.11861959999987,136.83560319999924,71,imgs/1_stim.png,0.07365805021457603,0.7046047473368244,0.27281008003032403,137.0690111999993,137.1023624999998,137.18573189999915,137.21910519999983,a,1.1464435999987472,136.30202680000002,None,,,stephen_7,001,2023_Apr_30_2213,meta-mask2,2021.2.3,59.95441066622542,
,,,,72,0,72,0,,,,,,,,,,,,,,,,,137.4858796999997,138.2196383999999,72,imgs/3_stim.png,0.020936786765687367,0.7225893893214472,0.29257118053969156,138.48626739999963,138.51962769999955,138.53630460000022,138.56965390000005,d,1.256227800000488,137.66928430000007,None,,,stephen_7,001,2023_Apr_30_2213,meta-mask2,2021.2.3,59.95441066622542,
,,,,73,0,73,0,,,,,,,,,,,,,,,,,138.96981349999987,139.50336330000027,73,imgs/1_stim.png,0.04494260580316907,0.5274372541142965,0.4591419657894634,139.93688959999963,139.97023309999895,140.02028559999962,140.05365130000064,a,1.4589965000013763,139.1532628999994,None,,,stephen_7,001,2023_Apr_30_2213,meta-mask2,2021.2.3,59.95441066622542,
,,,,74,0,74,0,,,,,,,,,,,,,,,,,140.6539410000005,141.4709602999992,74,imgs/4_stim.png,0.10928486465585964,0.8072727315344441,0.08439189712794887,141.53762160000042,141.5709377000003,141.67098839999926,141.70435689999977,e,1.112998399999924,140.8372904000007,None,,,stephen_7,001,2023_Apr_30_2213,meta-mask2,2021.2.3,59.95441066622542,
,,,,75,0,75,0,,,,,,,,,,,,,,,,,141.98787319999974,142.97167040000022,75,imgs/1_stim.png,0.08954120940949944,0.9752696256728128,0.2529457750201531,143.204995099999,143.2383854999989,143.32177039999988,143.35506200000054,a,1.5170533000000432,142.1712418999996,None,,,stephen_7,001,2023_Apr_30_2213,meta-mask2,2021.2.3,59.95441066622542,
,,,,76,0,76,0,,,,,,,,,,,,,,,,,143.72188189999906,144.6222789000003,76,imgs/2_stim.png,0.1107744722876637,0.8928640707381768,0.250438005544098,144.85575140000037,144.88906300000053,144.98906689999967,145.02241630000026,q,1.2611609999985376,143.90531190000002,None,,,stephen_7,001,2023_Apr_30_2213,meta-mask2,2021.2.3,59.95441066622542,
,,,,77,0,77,0,,,,,,,,,,,,,,,,,145.20581519999905,146.1062311000005,77,imgs/2_stim.png,0.06923513205658754,0.8938336014456909,0.31623840624414096,146.38973319999968,146.4231467999998,146.50645219999933,146.53977920000034,q,1.370325400001093,145.3892407000003,None,,,stephen_7,001,2023_Apr_30_2213,meta-mask2,2021.2.3,59.95441066622542,
,,,,78,0,78,0,,,,,,,,,,,,,,,,,146.80658889999904,147.5735509999995,78,imgs/3_stim.png,0.04620603796339139,0.7524041350702622,0.37815784115935636,147.92369789999975,147.95704490000026,147.9903775999992,148.0237821999999,d,1.2696063999992475,146.9899201999997,None,,,stephen_7,001,2023_Apr_30_2213,meta-mask2,2021.2.3,59.95441066622542,
,,,,79,0,79,0,,,,,,,,,,,,,,,,,148.30717189999996,148.82404879999922,79,imgs/4_stim.png,0.11008123070779001,0.5032452453480596,0.13556916360754545,148.92407850000018,148.95747329999904,149.0741734000003,149.10756469999978,e,0.8258624000009149,148.49059730000045,None,,,stephen_7,001,2023_Apr_30_2213,meta-mask2,2021.2.3,59.95441066622542,
,,,,80,0,80,0,,,,,,,,,,,,,,,,,149.35765139999967,150.24137379999956,80,imgs/1_stim.png,0.02744829355320113,0.8744753096189447,0.041588762659258316,150.25802619999922,150.29138059999968,150.30803150000065,150.3414314999991,q,1.2983973999998852,149.54103310000028,None,,,stephen_7,001,2023_Apr_30_2213,meta-mask2,2021.2.3,59.95441066622542,
,,,,81,0,81,0,,,,,,,,,,,,,,,,,150.8749631999999,151.7919798999992,81,imgs/4_stim.png,0.11423029922632577,0.9161183166238213,0.06738486901911889,151.84204370000043,151.87535000000025,151.99207960000058,152.0254430999994,e,1.2713062000002537,151.05836269999963,None,,,stephen_7,001,2023_Apr_30_2213,meta-mask2,2021.2.3,59.95441066622542,
,,,,82,0,82,0,,,,,,,,,,,,,,,,,152.37557919999927,153.00923259999945,82,imgs/2_stim.png,0.11298345464908405,0.6234746537808122,0.08293582268928584,153.0592087999994,153.09260320000067,153.20931070000006,153.24259949999941,q,0.9605040000005829,152.5589863999994,None,,,stephen_7,001,2023_Apr_30_2213,meta-mask2,2021.2.3,59.95441066622542,
,,,,83,0,83,0,,,,,,,,,,,,,,,,,153.55942529999993,154.35972799999945,83,imgs/2_stim.png,0.02382626282150398,0.7858800292898416,0.3126576610811557,154.64320059999955,154.67658309999933,154.69323909999912,154.72658369999954,q,1.4869225000002189,153.74287530000038,None,,,stephen_7,001,2023_Apr_30_2213,meta-mask2,2021.2.3,59.95441066622542,
,,,,84,0,84,0,,,,,,,,,,,,,,,,,155.2768388000004,155.993783599999,84,imgs/1_stim.png,0.012971647128935294,0.717653163901068,0.24080174803698945,156.21055239999987,156.24394589999974,156.26059689999965,156.29389880000053,d,1.3451851999998325,155.46025740000005,None,,,stephen_7,001,2023_Apr_30_2213,meta-mask2,2021.2.3,59.95441066622542,
,,,,85,0,85,0,,,,,,,,,,,,,,,,,156.84415239999907,157.84462299999905,85,imgs/3_stim.png,0.08462220031016926,0.9878289905735671,0.13649285437250208,157.9446680000001,157.97801310000068,158.06135989999893,158.09467570000015,d,1.3788800000002084,157.0275832999996,None,,,stephen_7,001,2023_Apr_30_2213,meta-mask2,2021.2.3,59.95441066622542,
,,,,86,0,86,0,,,,,,,,,,,,,,,,,158.44483620000028,159.19519509999918,86,imgs/1_stim.png,0.044108427714736866,0.735363208847855,0.028276679346523337,159.19519509999918,159.22862030000033,159.2618581000006,159.29525339999964,q,1.3621610999998666,158.62832030000027,None,,,stephen_7,001,2023_Apr_30_2213,meta-mask2,2021.2.3,59.95441066622542,
,,,,87,0,87,0,,,,,,,,,,,,,,,,,160.02888039999925,160.86263820000022,87,imgs/3_stim.png,0.09860008580522632,0.8336984675502277,0.03428858822105568,160.87928569999895,160.9126422999998,161.0125982999998,161.04600430000028,d,1.1705037000010634,160.21228789999986,None,,,stephen_7,001,2023_Apr_30_2213,meta-mask2,2021.2.3,59.95441066622542,
,,,,88,0,88,0,,,,,,,,,,,,,,,,,161.42952409999998,162.07971539999926,88,imgs/1_stim.png,0.07756136486603042,0.6358419004539652,0.07002898918841949,162.11310009999943,162.14645179999934,162.22988850000002,162.26314499999899,a,0.9655039999997825,161.6128664000007,None,,,stephen_7,001,2023_Apr_30_2213,meta-mask2,2021.2.3,59.95441066622542,
,,,,89,0,89,0,,,,,,,,,,,,,,,,,162.61329339999975,163.51371730000028,89,imgs/1_stim.png,0.062416427258771084,0.8968823977531635,0.14249554419620847,163.6304199999995,163.663729599999,163.73042669999995,163.77478650000012,a,1.2686930999989272,162.79674179999893,None,,,stephen_7,001,2023_Apr_30_2213,meta-mask2,2021.2.3,59.95441066622542,
,,,,90,0,90,0,,,,,,,,,,,,,,,,,164.09726290000071,165.08104579999963,90,imgs/4_stim.png,0.10548306789994862,0.970722998605634,0.030760486934838183,165.08104579999963,165.11440550000043,165.2144927999998,165.24779110000054,e,1.2617926000002626,164.2806930000006,None,,,stephen_7,001,2023_Apr_30_2213,meta-mask2,2021.2.3,59.95441066622542,
,,,,91,0,91,0,,,,,,,,,,,,,,,,,165.58123680000062,166.51496609999958,91,imgs/2_stim.png,0.04653961413128813,0.9189454885028112,0.18867602335188638,166.66502779999973,166.69839719999982,166.74845559999994,166.7818213999999,q,1.2377909999995609,165.7646420000001,None,,,stephen_7,001,2023_Apr_30_2213,meta-mask2,2021.2.3,59.95441066622542,
,,,,92,0,92,0,,,,,,,,,,,,,,,,,167.04853279999952,167.66546220000055,92,imgs/3_stim.png,0.03803986727076662,0.615887206169315,0.34208409250140376,167.98226599999907,168.01562079999894,168.04895769999894,168.08229670000037,d,1.1764452000006713,167.23203739999917,None,,,stephen_7,001,2023_Apr_30_2213,meta-mask2,2021.2.3,59.95441066622542,
,,,,93,0,93,0,,,,,,,,,,,,,,,,,168.44913189999897,169.0661,93,imgs/2_stim.png,0.010083448804950948,0.6133376575512977,0.30949323104122783,169.34955029999946,169.38290249999955,169.39958639999895,169.43291639999916,q,1.0666768000010052,168.63256790000014,None,,,stephen_7,001,2023_Apr_30_2213,meta-mask2,2021.2.3,59.95441066622542,
,,,,94,0,94,0,,,,,,,,,,,,,,,,,169.73301530000026,170.56675340000038,94,imgs/4_stim.png,0.08384385783633937,0.8329528593752259,0.4791534813464609,171.0336368999997,171.06694029999926,171.13364510000065,171.16695629999958,e,1.5680353999996441,169.91650089999894,None,,,stephen_7,001,2023_Apr_30_2213,meta-mask2,2021.2.3,59.95441066622542,
,,,,95,0,95,0,,,,,,,,,,,,,,,,,171.51712670000052,172.25078939999912,95,imgs/2_stim.png,0.022567522413718163,0.7294885511736988,0.4243406650697168,172.6509812000004,172.68432559999928,172.70097899999928,172.7343295999999,q,1.283804599999712,171.70055200000024,None,,,stephen_7,001,2023_Apr_30_2213,meta-mask2,2021.2.3,59.95441066622542,
,,,,96,0,96,0,,,,,,,,,,,,,,,,,173.01777539999966,173.83479330000046,96,imgs/2_stim.png,0.04957743413528424,0.8089622179127722,0.16734230612740292,173.96820730000036,174.00158569999985,174.0516764999993,174.08491230000072,q,1.2042748000003485,173.2011679999996,None,,,stephen_7,001,2023_Apr_30_2213,meta-mask2,2021.2.3,59.95441066622542,
,,,,97,0,97,0,,,,,,,,,,,,,,,,,174.45174459999907,174.9852878999991,97,imgs/1_stim.png,0.04705374668296533,0.5190891393702258,0.021779477199812103,174.9686314999999,175.0019298999996,175.05200180000065,175.0853365999992,q,1.0323398000000452,174.63515580000058,None,,,stephen_7,001,2023_Apr_30_2213,meta-mask2,2021.2.3,59.95441066622542,
,,,,98,0,98,0,,,,,,,,,,,,,,,,,175.70222939999985,176.41931809999915,98,imgs/4_stim.png,0.1035794338750783,0.7042906933099589,0.06755844846352288,176.4525776999999,176.48594629999934,176.58595629999945,176.6193017000005,e,1.0287899000013567,175.88569540000026,None,,,stephen_7,001,2023_Apr_30_2213,meta-mask2,2021.2.3,59.95441066622542,
,,,,99,0,99,0,,,,,,,,,,,,,,,,,176.9527775000006,177.51972129999922,99,imgs/4_stim.png,0.025135803359976464,0.5581528062649357,0.21057785274837737,177.70314409999992,177.73647709999932,177.7531486000007,177.7865013999999,q,0.9442631000001711,177.13621590000002,None,,,stephen_7,001,2023_Apr_30_2213,meta-mask2,2021.2.3,59.95441066622542,
,,,,,,,,,,,,,,,,,,,,,,,,,,,,,,,,,,,,,,,178.10329490000004,None,,,,,,,
