imageTest.thisRepN,imageTest.thisTrialN,imageTest.thisN,imageTest.thisIndex,trials.thisRepN,trials.thisTrialN,trials.thisN,trials.thisIndex,image_5.started,image_5.stopped,image_6.started,image_6.stopped,image_7.started,image_7.stopped,image_8.started,image_8.stopped,image_9.started,image_9.stopped,key_resp_7.keys,key_resp_7.rt,polygon_6.started,polygon_6.stopped,text_2.started,text_2.stopped,polygon.started,polygon.stopped,currTrial,imgName,soa,fixTime,jitter,stim.started,stim.stopped,mask.started,mask.stopped,mainTrial_response.keys,mainTrial_response.rt,mainTrial_response.started,mainTrial_response.stopped,text_3.started,text_3.stopped,participant,session,date,expName,psychopyVersion,frameRate,
0,0,0,0,,,,,12.190143000000717,None,12.190143000000717,None,12.190143000000717,None,12.190143000000717,None,12.190143000000717,None,1,1.4444965000002412,12.190143000000717,None,,,,,,,,,,,,,,,,,,,,stephen6,001,2023_Apr_30_2057,meta-mask2,2021.2.3,59.95372771307742,
,,,,0,0,0,0,,,,,,,,,,,,,,,15.458122500000172,None,16.825389800000266,17.358945200000562,0,imgs/4_stim.png,0.06669304350818546,0.524828001382529,0.44704957388488226,17.7758115000006,17.809128000000783,17.85919770000055,17.8925418000008,e,1.2955222000000504,17.008810000000267,None,,,stephen6,001,2023_Apr_30_2057,meta-mask2,2021.2.3,59.95372771307742,
,,,,1,0,1,0,,,,,,,,,,,,,,,,,18.342710300000363,19.159736200000225,1,imgs/2_stim.png,0.044257686674066585,0.8038029460379638,0.46446481215658747,19.59324689999994,19.626614300000256,19.659960700000738,19.693403799999942,q,1.44817890000013,18.52610890000051,None,,,stephen6,001,2023_Apr_30_2057,meta-mask2,2021.2.3,59.95372771307742,
,,,,2,0,2,0,,,,,,,,,,,,,,,,,20.01009620000059,20.59370730000046,2,imgs/1_stim.png,0.05473220009362842,0.5733417587938907,0.2859936898905744,20.84385580000071,20.877146900000298,20.927198600000338,20.96055510000042,a,1.0856923999999708,20.193535200000042,None,,,stephen6,001,2023_Apr_30_2057,meta-mask2,2021.2.3,59.95372771307742,
,,,,3,0,3,0,,,,,,,,,,,,,,,,,21.327297499999986,22.311047200000758,3,imgs/4_stim.png,0.04151368049715973,0.9696437743222938,0.23214481758194438,22.51115960000061,22.5444935000005,22.5778435000002,22.611187900000004,e,1.5443632999995316,21.510747700000138,None,,,stephen6,001,2023_Apr_30_2057,meta-mask2,2021.2.3,59.95372771307742,
,,,,4,0,4,0,,,,,,,,,,,,,,,,,23.0948171,23.661669699999948,4,imgs/1_stim.png,0.040427006415640517,0.5618659722740826,0.2278006023417688,23.86175430000003,23.895124399999986,23.928420800000822,23.96175519999997,a,1.084751000000324,23.278186900000037,None,,,stephen6,001,2023_Apr_30_2057,meta-mask2,2021.2.3,59.95372771307742,
,,,,5,0,5,0,,,,,,,,,,,,,,,,,24.395313400000305,24.912214200000562,5,imgs/3_stim.png,0.09844661933306362,0.5089866714103333,0.059191231430019364,24.945567700000538,24.978894000000764,25.062280699999974,25.09566470000027,d,0.9714235999999801,24.578734000000622,None,,,stephen6,001,2023_Apr_30_2057,meta-mask2,2021.2.3,59.95372771307742,
,,,,6,0,6,0,,,,,,,,,,,,,,,,,25.59582230000069,26.112796500000513,6,imgs/1_stim.png,0.0360993351283508,0.5146376209391279,0.11519075851874278,26.212784700000157,26.246172500000284,26.262808700000278,26.29615090000061,q,0.974966100000529,25.779259100000672,None,,,stephen6,001,2023_Apr_30_2057,meta-mask2,2021.2.3,59.95372771307742,
,,,,7,0,7,0,,,,,,,,,,,,,,,,,26.796350300000086,27.313326899999993,7,imgs/1_stim.png,0.09341255251360643,0.5144248521709295,0.21152793353123212,27.49664389999998,27.529955200000586,27.61335720000079,27.646720200000345,a,1.006558799999766,26.979775100000552,None,,,stephen6,001,2023_Apr_30_2057,meta-mask2,2021.2.3,59.95372771307742,
,,,,8,0,8,0,,,,,,,,,,,,,,,,,28.03026310000041,29.013979300000756,8,imgs/1_stim.png,0.0344307618604236,0.9732980896906169,0.06143899022636723,29.047289900000578,29.080637200000638,29.09737270000005,29.130687300000318,a,1.497708199999579,28.213613500000065,None,,,stephen6,001,2023_Apr_30_2057,meta-mask2,2021.2.3,59.95372771307742,
,,,,9,0,9,0,,,,,,,,,,,,,,,,,29.74758760000077,30.34787950000009,9,imgs/3_stim.png,0.034683376922983164,0.5948976026534354,0.11160250194321586,30.431247800000165,30.4645687000002,30.497958900000413,30.531305200000133,d,0.9973784000003434,29.93102810000073,None,,,stephen6,001,2023_Apr_30_2057,meta-mask2,2021.2.3,59.95372771307742,
,,,,10,0,10,0,,,,,,,,,,,,,,,,,30.964806200000567,31.79855570000018,10,imgs/2_stim.png,0.06415471949898689,0.8231530556933595,0.27194997007644967,32.048587500000394,32.08192340000005,32.13201620000018,32.165298600000824,q,1.3491321000001335,31.148246400000062,None,,,stephen6,001,2023_Apr_30_2057,meta-mask2,2021.2.3,59.95372771307742,
,,,,11,0,11,0,,,,,,,,,,,,,,,,,32.532140600000275,33.1824088000003,11,imgs/3_stim.png,0.07067472001747802,0.6379041323101963,0.40932408503237677,33.56588780000038,33.599275300000045,33.64930860000004,33.682631600000605,d,1.480634999999893,32.71556650000002,None,,,stephen6,001,2023_Apr_30_2057,meta-mask2,2021.2.3,59.95372771307742,
,,,,12,0,12,0,,,,,,,,,,,,,,,,,34.23287359999995,35.1498973000007,12,imgs/4_stim.png,0.0466603378726412,0.9040010001602676,0.3480579134344487,35.46670300000005,35.50005830000009,35.53341240000009,35.56677639999998,e,1.4640128000000914,34.41629499999999,None,,,stephen6,001,2023_Apr_30_2057,meta-mask2,2021.2.3,59.95372771307742,
,,,,13,0,13,0,,,,,,,,,,,,,,,,,35.916918500000065,36.8506694000007,13,imgs/1_stim.png,0.04528484975547915,0.9193677333899948,0.28538030022970545,37.10083100000065,37.13419479999993,37.16743060000044,37.20080640000015,q,1.3969309000003705,36.1003326,None,,,stephen6,001,2023_Apr_30_2057,meta-mask2,2021.2.3,59.95372771307742,
,,,,14,0,14,0,,,,,,,,,,,,,,,,,37.534277400000065,38.28461210000023,14,imgs/2_stim.png,0.0231427574569478,0.7372267111683839,0.3219807163351956,38.56808750000073,38.60138740000002,38.61807390000013,38.651518900000156,q,1.396622500000376,37.71771110000009,None,,,stephen6,001,2023_Apr_30_2057,meta-mask2,2021.2.3,59.95372771307742,
,,,,15,0,15,0,,,,,,,,,,,,,,,,,39.15165980000074,39.81860350000079,15,imgs/1_stim.png,0.04478588274717626,0.6645867791237173,0.21337152122836472,40.001979600000595,40.03533960000004,40.06873840000026,40.10208600000078,a,1.0303721000000223,39.33503180000025,None,,,stephen6,001,2023_Apr_30_2057,meta-mask2,2021.2.3,59.95372771307742,
,,,,16,0,16,0,,,,,,,,,,,,,,,,,40.40218510000068,41.11923360000037,16,imgs/3_stim.png,0.02266356652411134,0.7044363874437252,0.03377488417961394,41.11923360000037,41.152513800000634,41.169157400000586,41.20249420000073,d,1.0616667999993297,40.58561009999994,None,,,stephen6,001,2023_Apr_30_2057,meta-mask2,2021.2.3,59.95372771307742,
,,,,17,0,17,0,,,,,,,,,,,,,,,,,41.68605260000004,42.48640710000018,17,imgs/2_stim.png,0.03495964385994697,0.7940019181814251,0.13152338451026657,42.586457400000654,42.619804800000566,42.65316950000033,42.68650670000079,q,1.1537925999991785,41.86945319999995,None,,,stephen6,001,2023_Apr_30_2057,meta-mask2,2021.2.3,59.95372771307742,
,,,,18,0,18,0,,,,,,,,,,,,,,,,,43.06997330000013,43.97038020000036,18,imgs/1_stim.png,0.05640290095916176,0.8947184126580365,0.40495801351247024,44.35388890000013,44.38725250000061,44.42055540000001,44.45394269999997,a,1.5457253999993554,43.25343560000056,None,,,stephen6,001,2023_Apr_30_2057,meta-mask2,2021.2.3,59.95372771307742,
,,,,19,0,19,0,,,,,,,,,,,,,,,,,44.83741330000066,45.60441080000055,19,imgs/4_stim.png,0.035489534531011675,0.7553187280884193,0.32645188927785296,45.90454620000037,45.937892300000385,45.954667100000734,45.9879174000007,d,1.300433399999747,45.02083880000009,None,,,stephen6,001,2023_Apr_30_2057,meta-mask2,2021.2.3,59.95372771307742,
,,,,20,0,20,0,,,,,,,,,,,,,,,,,46.35471310000048,47.338470300000154,20,imgs/2_stim.png,0.01713201701408938,0.9782185646987891,0.2758514433969961,47.588579400000526,47.62195560000055,47.62195560000055,47.65529779999997,q,1.530152299999827,46.53811380000025,None,,,stephen6,001,2023_Apr_30_2057,meta-mask2,2021.2.3,59.95372771307742,
,,,,21,0,21,0,,,,,,,,,,,,,,,,,48.10547530000076,48.77243810000073,21,imgs/2_stim.png,0.03858181930186563,0.6604875459326784,0.47972366756148643,49.222612200000185,49.25595440000052,49.289332500000455,49.32263880000028,q,1.4843615999998292,48.28892420000011,None,,,stephen6,001,2023_Apr_30_2057,meta-mask2,2021.2.3,59.95372771307742,
,,,,22,0,22,0,,,,,,,,,,,,,,,,,49.806229700000586,50.62321940000038,22,imgs/3_stim.png,0.018948697942796775,0.8157757291865495,0.33546865782162905,50.940134400000716,50.973362100000486,50.973362100000486,51.00669780000044,e,1.7963994000001549,49.989633300000605,None,,,stephen6,001,2023_Apr_30_2057,meta-mask2,2021.2.3,59.95372771307742,
,,,,23,0,23,0,,,,,,,,,,,,,,,,,51.823763400000644,52.67414260000078,23,imgs/1_stim.png,0.051386840065575375,0.8489307877843177,0.3364552513865295,52.9908858000008,53.02425420000054,53.05758470000001,53.09093310000026,a,1.5130976999998893,52.007218300000204,None,,,stephen6,001,2023_Apr_30_2057,meta-mask2,2021.2.3,59.95372771307742,
,,,,24,0,24,0,,,,,,,,,,,,,,,,,53.55777570000009,54.42488780000076,24,imgs/1_stim.png,0.0768742635294901,0.8524140475280411,0.07772136971561933,54.474898000000394,54.508249100000285,54.55823500000042,54.59157800000048,d,1.436891899999864,53.74119990000054,None,,,stephen6,001,2023_Apr_30_2057,meta-mask2,2021.2.3,59.95372771307742,
,,,,25,0,25,0,,,,,,,,,,,,,,,,,55.22526470000048,56.00888280000072,25,imgs/3_stim.png,0.07660536397055324,0.7708971118926492,0.29682709340752783,56.2756859000001,56.30902370000058,56.375720700000784,56.40902290000031,d,1.458719299999757,55.408626899999945,None,,,stephen6,001,2023_Apr_30_2057,meta-mask2,2021.2.3,59.95372771307742,
,,,,26,0,26,0,,,,,,,,,,,,,,,,,56.90931720000026,57.642955500000426,26,imgs/2_stim.png,0.058938892240626,0.7344040703903094,0.40062889935101104,58.02638470000056,58.05977849999999,58.10986700000012,58.143176100000346,q,1.3306156999997256,57.09264860000076,None,,,stephen6,001,2023_Apr_30_2057,meta-mask2,2021.2.3,59.95372771307742,
,,,,27,0,27,0,,,,,,,,,,,,,,,,,58.45999819999997,59.21031690000018,27,imgs/3_stim.png,0.059113002561867155,0.7394139527758126,0.40813124652343497,59.59376590000011,59.62709190000078,59.677156800000375,59.71043920000011,q,1.6507247999998071,58.64332110000032,None,,,stephen6,001,2023_Apr_30_2057,meta-mask2,2021.2.3,59.95372771307742,
,,,,28,0,28,0,,,,,,,,,,,,,,,,,60.32740869999998,61.27779450000071,28,imgs/4_stim.png,0.022950147838334732,0.9487805668704741,0.4334444479602555,61.6947351000008,61.728009000000384,61.728009000000384,61.76135950000025,e,1.9984661999997115,60.51078730000063,None,,,stephen6,001,2023_Apr_30_2057,meta-mask2,2021.2.3,59.95372771307742,
,,,,29,0,29,0,,,,,,,,,,,,,,,,,62.54498660000081,63.39539550000063,29,imgs/4_stim.png,0.04866534072159244,0.845742039158828,0.16559941868272587,63.54545180000059,63.57877140000073,63.612190400000145,63.64549740000075,q,1.2870887999997649,62.7284380000001,None,,,stephen6,001,2023_Apr_30_2057,meta-mask2,2021.2.3,59.95372771307742,
,,,,30,0,30,0,,,,,,,,,,,,,,,,,64.0623411000006,64.89600070000051,30,imgs/4_stim.png,0.06415364546358145,0.8262317877845429,0.4533195582458865,65.32954990000053,65.36290310000004,65.4129498000002,65.44626270000026,e,1.6435414999996283,64.2457385000007,None,,,stephen6,001,2023_Apr_30_2057,meta-mask2,2021.2.3,59.95372771307742,
,,,,31,0,31,0,,,,,,,,,,,,,,,,,65.92978810000022,66.49669210000047,31,imgs/2_stim.png,0.09738911002822416,0.5617721744222377,0.07196864772137679,66.54670840000017,66.58003989999997,66.66348040000048,66.69688300000053,q,0.9460708999995404,66.11331420000079,None,,,stephen6,001,2023_Apr_30_2057,meta-mask2,2021.2.3,59.95372771307742,
,,,,32,0,32,0,,,,,,,,,,,,,,,,,67.09696920000079,67.61390440000014,32,imgs/4_stim.png,0.010316968047656078,0.505428299610174,0.30809728420389704,67.89730130000044,67.93065410000054,67.91402500000004,67.94731200000024,q,1.214984799999911,67.28035930000078,None,,,stephen6,001,2023_Apr_30_2057,meta-mask2,2021.2.3,59.95372771307742,
,,,,33,0,33,0,,,,,,,,,,,,,,,,,68.53090190000057,69.14782439999999,33,imgs/4_stim.png,0.051162240221745106,0.6039016737645801,0.13809939581629577,69.24789860000055,69.28124800000023,69.33124870000029,69.36462610000035,q,1.653030200000103,68.71433440000055,None,,,stephen6,001,2023_Apr_30_2057,meta-mask2,2021.2.3,59.95372771307742,
,,,,34,0,34,0,,,,,,,,,,,,,,,,,70.41507770000044,71.04868590000024,34,imgs/3_stim.png,0.01837246149393601,0.6269747564814162,0.03997090204508197,71.06536200000028,71.0987126,71.0987126,71.132157,d,1.1527697000001353,70.59843920000003,None,,,stephen6,001,2023_Apr_30_2057,meta-mask2,2021.2.3,59.95372771307742,
,,,,35,0,35,0,,,,,,,,,,,,,,,,,71.79902680000032,72.5493232000008,35,imgs/4_stim.png,0.09100839694072696,0.7453464089106654,0.3016664194032054,72.83280670000022,72.86615180000081,72.93282679999993,72.96622180000031,q,1.639649400000053,71.98245560000032,None,,,stephen6,001,2023_Apr_30_2057,meta-mask2,2021.2.3,59.95372771307742,
,,,,36,0,36,0,,,,,,,,,,,,,,,,,73.66650060000029,74.2167556000004,36,imgs/2_stim.png,0.07080161674431075,0.5401562085635507,0.3834656454333042,74.56681480000043,74.60023860000001,74.66693470000064,74.70032160000028,q,1.476511599999867,73.8499184000002,None,,,stephen6,001,2023_Apr_30_2057,meta-mask2,2021.2.3,59.95372771307742,
,,,,37,0,37,0,,,,,,,,,,,,,,,,,75.36717120000048,76.3009135000002,37,imgs/4_stim.png,0.0770003486201551,0.9254171863284177,0.23034973949777715,76.5009828000002,76.53437940000003,76.60108430000037,76.63442080000004,e,1.523667999999816,75.55058420000023,None,,,stephen6,001,2023_Apr_30_2057,meta-mask2,2021.2.3,59.95372771307742,
,,,,38,0,38,0,,,,,,,,,,,,,,,,,77.11805470000036,77.81820510000034,38,imgs/4_stim.png,0.023505103500430762,0.694419477521154,0.4263175851429846,78.21843119999994,78.25176650000049,78.26842940000006,78.30178440000054,q,1.7947573999999804,77.30140200000005,None,,,stephen6,001,2023_Apr_30_2057,meta-mask2,2021.2.3,59.95372771307742,
,,,,39,0,39,0,,,,,,,,,,,,,,,,,79.13548300000002,80.00249239999994,39,imgs/2_stim.png,0.07575990723562626,0.863264519549829,0.15089247634978936,80.13594850000027,80.16922220000015,80.21926500000063,80.25259260000075,q,1.396555499999522,79.31884360000004,None,,,stephen6,001,2023_Apr_30_2057,meta-mask2,2021.2.3,59.95372771307742,
,,,,40,0,40,0,,,,,,,,,,,,,,,,,80.7528226000004,81.61984699999994,40,imgs/4_stim.png,0.018469750314454105,0.8666219682260852,0.23965888245970562,81.83664130000034,81.8699815,81.8699815,81.90330930000073,d,1.3523719000004348,80.9362198000008,None,,,stephen6,001,2023_Apr_30_2057,meta-mask2,2021.2.3,59.95372771307742,
,,,,41,0,41,0,,,,,,,,,,,,,,,,,82.33681969999998,82.97041270000045,41,imgs/3_stim.png,0.04581323195947192,0.6265475870824024,0.45477687752806123,83.4039730000004,83.43729600000006,83.47063680000065,83.50403220000044,d,1.460996900000282,82.52025460000004,None,,,stephen6,001,2023_Apr_30_2057,meta-mask2,2021.2.3,59.95372771307742,
,,,,42,0,42,0,,,,,,,,,,,,,,,,,84.02086730000065,84.98798290000013,42,imgs/3_stim.png,0.06761934501246218,0.9531200057898735,0.06875421344479388,85.0213330000006,85.05465000000004,85.1047236000004,85.13806890000069,q,1.5372425000005023,84.20439030000034,None,,,stephen6,001,2023_Apr_30_2057,meta-mask2,2021.2.3,59.95372771307742,
,,,,43,0,43,0,,,,,,,,,,,,,,,,,85.78835810000055,86.55530380000073,43,imgs/1_stim.png,0.04561068488694924,0.760101838364669,0.42682599794533266,86.95546800000011,86.98882260000028,87.0221874000008,87.05555210000057,q,1.796671599999172,85.97171400000025,None,,,stephen6,001,2023_Apr_30_2057,meta-mask2,2021.2.3,59.95372771307742,
,,,,44,0,44,0,,,,,,,,,,,,,,,,,87.80586630000016,88.4227965,44,imgs/4_stim.png,0.07802013849842819,0.613522437154071,0.4619068611523602,88.85628330000054,88.88962860000083,88.95633710000038,88.9897277,q,1.7460472999991907,87.98930270000074,None,,,stephen6,001,2023_Apr_30_2057,meta-mask2,2021.2.3,59.95372771307742,
,,,,45,0,45,0,,,,,,,,,,,,,,,,,89.7733603000006,90.74045150000074,45,imgs/3_stim.png,0.039957650075604485,0.95758307824487,0.3791950752617037,91.09057190000021,91.12407010000061,91.15728160000072,91.19065990000036,q,1.7146648999996614,89.95674780000081,None,,,stephen6,001,2023_Apr_30_2057,meta-mask2,2021.2.3,59.95372771307742,
,,,,46,0,46,0,,,,,,,,,,,,,,,,,91.70761450000009,92.62459290000061,46,imgs/1_stim.png,0.09968350213919304,0.9015918725748258,0.40413184067823726,92.99138430000039,93.02472269999998,93.10816010000053,93.14146830000027,a,1.686206399999719,91.89098470000044,None,,,stephen6,001,2023_Apr_30_2057,meta-mask2,2021.2.3,59.95372771307742,
,,,,47,0,47,0,,,,,,,,,,,,,,,,,93.62503860000015,94.54207290000068,47,imgs/1_stim.png,0.021892186420480603,0.9146210370934775,0.4203801200194694,94.94225840000036,94.9755967000001,94.9755967000001,95.00891960000081,a,2.0588746000003084,93.80841280000004,None,,,stephen6,001,2023_Apr_30_2057,meta-mask2,2021.2.3,59.95372771307742,
,,,,48,0,48,0,,,,,,,,,,,,,,,,,95.90934870000001,96.60963609999999,48,imgs/3_stim.png,0.019379220660806273,0.6857070387228678,0.16889211595693066,96.74303190000046,96.77639650000037,96.77639650000037,96.80972800000018,a,1.3345478000001094,96.0927700000002,None,,,stephen6,001,2023_Apr_30_2057,meta-mask2,2021.2.3,59.95372771307742,
,,,,49,0,49,0,,,,,,,,,,,,,,,,,97.45999370000027,98.21029360000011,49,imgs/4_stim.png,0.060912502827207005,0.7510327089053637,0.00822180748244955,98.19367150000016,98.22699040000043,98.27699220000068,98.3103245000002,e,1.3507652999996935,97.64342420000048,None,,,stephen6,001,2023_Apr_30_2057,meta-mask2,2021.2.3,59.95372771307742,
,,,,50,0,50,0,,,,,,,,,,,,,,,,,99.02739510000083,99.79435400000057,50,imgs/1_stim.png,0.03070391189482416,0.7611215844325885,0.3424168177459091,100.11119589999998,100.14450579999993,100.16121650000059,100.19453740000063,a,1.663359400000445,99.21080430000075,None,,,stephen6,001,2023_Apr_30_2057,meta-mask2,2021.2.3,59.95372771307742,
,,,,51,0,51,0,,,,,,,,,,,,,,,,,100.91147100000035,101.52838690000044,51,imgs/3_stim.png,0.05791662679074929,0.6100327216073749,0.23371954647041826,101.72845440000037,101.76185140000052,101.81184050000047,101.84518720000051,a,1.2394443000002866,101.09490050000022,None,,,stephen6,001,2023_Apr_30_2057,meta-mask2,2021.2.3,59.95372771307742,
,,,,52,0,52,0,,,,,,,,,,,,,,,,,102.37879320000047,103.16240500000004,52,imgs/2_stim.png,0.03814932419554921,0.7756471303731438,0.42376983036980387,103.56261410000025,103.59596380000039,103.6126475000001,103.64596419999998,q,1.4489245999993727,102.56216510000013,None,,,stephen6,001,2023_Apr_30_2057,meta-mask2,2021.2.3,59.95372771307742,
,,,,53,0,53,0,,,,,,,,,,,,,,,,,104.0461576000007,104.79645140000048,53,imgs/1_stim.png,0.05983481875339829,0.7371923494900983,0.3239817697885981,105.07992840000043,105.11340980000023,105.16330540000035,105.19665500000065,a,1.3217787000003227,104.22957700000006,None,,,stephen6,001,2023_Apr_30_2057,meta-mask2,2021.2.3,59.95372771307742,
,,,,54,0,54,0,,,,,,,,,,,,,,,,,105.59682890000022,106.2304352000001,54,imgs/2_stim.png,0.05916595947825394,0.6257483366006225,0.47483629502350366,106.6806000000006,106.71400240000003,106.76398920000065,106.7973092000002,q,1.2370707999998558,105.78025849999995,None,,,stephen6,001,2023_Apr_30_2057,meta-mask2,2021.2.3,59.95372771307742,
,,,,55,0,55,0,,,,,,,,,,,,,,,,,107.06416530000024,108.03124470000057,55,imgs/3_stim.png,0.03603350927451088,0.9644127590043444,0.38282322650349054,108.39799850000054,108.43144870000015,108.44805750000069,108.48140890000013,e,1.673686699999962,107.24752950000038,None,,,stephen6,001,2023_Apr_30_2057,meta-mask2,2021.2.3,59.95372771307742,
,,,,56,0,56,0,,,,,,,,,,,,,,,,,108.96491220000007,109.81538500000079,56,imgs/2_stim.png,0.015699601066741394,0.8351956162671196,0.14687113662799334,109.93200380000053,109.96538380000038,109.96538380000038,109.99868530000003,q,1.1979387000001225,109.1483332000007,None,,,stephen6,001,2023_Apr_30_2057,meta-mask2,2021.2.3,59.95372771307742,
,,,,57,0,57,0,,,,,,,,,,,,,,,,,110.38221330000033,110.91578280000067,57,imgs/3_stim.png,0.07867745922314529,0.5325775496072891,0.3207269590243202,111.21590540000034,111.24922170000082,111.31598360000044,111.34931990000041,d,1.0176267000006192,110.56563520000054,None,,,stephen6,001,2023_Apr_30_2057,meta-mask2,2021.2.3,59.95372771307742,
,,,,58,0,58,0,,,,,,,,,,,,,,,,,111.61607520000052,112.61651490000077,58,imgs/4_stim.png,0.0667666012082916,0.9954375625480956,0.2995924988751781,112.89995070000077,112.93326960000013,112.98337360000005,113.01664720000008,e,1.436758199999531,111.79949730000044,None,,,stephen6,001,2023_Apr_30_2057,meta-mask2,2021.2.3,59.95372771307742,
,,,,59,0,59,0,,,,,,,,,,,,,,,,,113.28345239999999,113.96706150000045,59,imgs/3_stim.png,0.06768376261884904,0.6708603606100823,0.39519227105332877,114.33393930000057,114.36726410000028,114.41723619999993,114.45059840000067,a,1.267544799999996,113.46690519999993,None,,,stephen6,001,2023_Apr_30_2057,meta-mask2,2021.2.3,59.95372771307742,
,,,,60,0,60,0,,,,,,,,,,,,,,,,,114.76744430000053,115.6010780000006,60,imgs/4_stim.png,0.018738927488024235,0.8266414940897429,0.07858391308336976,115.65109960000063,115.68455760000052,115.68455760000052,115.71783190000042,e,1.2774920000001657,114.9508177000007,None,,,stephen6,001,2023_Apr_30_2057,meta-mask2,2021.2.3,59.95372771307742,
,,,,61,0,61,0,,,,,,,,,,,,,,,,,116.26806820000002,117.25181800000064,61,imgs/1_stim.png,0.02852844508712863,0.9766647987824106,0.15206843379206153,117.38522770000054,117.41857240000081,117.41857240000081,117.45192550000047,a,1.3638449000000037,116.45145339999999,None,,,stephen6,001,2023_Apr_30_2057,meta-mask2,2021.2.3,59.95372771307742,
,,,,62,0,62,0,,,,,,,,,,,,,,,,,117.85209420000047,118.36905280000065,62,imgs/3_stim.png,0.046165144601044046,0.509369274120771,0.244184385882517,118.58571180000035,118.61911430000055,118.65244280000024,118.68578670000079,q,1.1058585999999195,118.0354741000001,None,,,stephen6,001,2023_Apr_30_2057,meta-mask2,2021.2.3,59.95372771307742,
,,,,63,0,63,0,,,,,,,,,,,,,,,,,119.18600700000025,119.93630640000083,63,imgs/1_stim.png,0.01013459301186799,0.7416786525711807,0.04370778160799538,119.95295780000015,119.98630970000067,119.98630970000067,120.01968639999996,e,1.3610202999998364,119.36937920000037,None,,,stephen6,001,2023_Apr_30_2057,meta-mask2,2021.2.3,59.95372771307742,
,,,,64,0,64,0,,,,,,,,,,,,,,,,,120.76999100000012,121.72041920000083,64,imgs/3_stim.png,0.023850424186459596,0.9462291014451485,0.2754669380239708,121.97054380000009,122.00388100000055,122.02052450000065,122.05389710000054,e,1.6959471000000121,120.95338970000012,None,,,stephen6,001,2023_Apr_30_2057,meta-mask2,2021.2.3,59.95372771307742,
,,,,65,0,65,0,,,,,,,,,,,,,,,,,122.68748300000061,123.65456970000014,65,imgs/4_stim.png,0.038931559056759886,0.9619172771692999,0.45129828393006216,124.08813790000022,124.1215473000002,124.13810920000014,124.17146860000048,e,1.7505599999994956,122.87087430000065,None,,,stephen6,001,2023_Apr_30_2057,meta-mask2,2021.2.3,59.95372771307742,
,,,,66,0,66,0,,,,,,,,,,,,,,,,,124.65500610000072,125.6553973,66,imgs/2_stim.png,0.07464976080682856,0.9874273390327277,0.2684092686302534,125.88888020000013,125.92223450000074,125.98891430000003,126.02226110000083,q,1.5818907000002582,124.83840520000012,None,,,stephen6,001,2023_Apr_30_2057,meta-mask2,2021.2.3,59.95372771307742,
,,,,67,0,67,0,,,,,,,,,,,,,,,,,126.45574670000042,127.12277370000083,67,imgs/4_stim.png,0.04434952611959807,0.6554473847850484,0.23261096197362735,127.32279670000025,127.35613290000038,127.38947400000052,127.42286140000033,q,1.561185800000203,126.63916080000035,None,,,stephen6,001,2023_Apr_30_2057,meta-mask2,2021.2.3,59.95372771307742,
,,,,68,0,68,0,,,,,,,,,,,,,,,,,128.23987540000053,129.09024070000032,68,imgs/3_stim.png,0.015716471734881825,0.8418514538858475,0.3997736680218946,129.45703660000072,129.49038629999995,129.49038629999995,129.52378500000032,e,1.810065100000429,128.42327410000053,None,,,stephen6,001,2023_Apr_30_2057,meta-mask2,2021.2.3,59.95372771307742,
,,,,69,0,69,0,,,,,,,,,,,,,,,,,130.27407270000003,131.07443950000015,69,imgs/1_stim.png,0.01047726971796548,0.7931731332143066,0.3029089062023533,131.3578836000006,131.39123240000026,131.39123240000026,131.42459130000043,a,1.4716588000001138,130.45751070000006,None,,,stephen6,001,2023_Apr_30_2057,meta-mask2,2021.2.3,59.95372771307742,
,,,,70,0,70,0,,,,,,,,,,,,,,,,,131.97482470000068,132.50842920000014,70,imgs/1_stim.png,0.09795647975033225,0.5273685389454328,0.012654351120264806,132.49177000000054,132.5250289000005,132.6251138000007,132.65850540000065,q,1.2288398000000598,132.1582371000004,None,,,stephen6,001,2023_Apr_30_2057,meta-mask2,2021.2.3,59.95372771307742,
,,,,71,0,71,0,,,,,,,,,,,,,,,,,133.4254634000008,134.39247690000047,71,imgs/1_stim.png,0.032304746565606036,0.9568150118958424,0.057953295558071605,134.42584130000068,134.45920370000022,134.4759025000003,134.50925700000062,a,1.446461399999862,133.60885850000068,None,,,stephen6,001,2023_Apr_30_2057,meta-mask2,2021.2.3,59.95372771307742,
,,,,72,0,72,0,,,,,,,,,,,,,,,,,135.09283890000006,135.97655320000013,72,imgs/3_stim.png,0.011825496762355567,0.8782729345500675,0.26726212262702337,136.22665380000035,136.2599794000007,136.24338640000042,136.27667540000039,a,1.437411500000053,135.27624250000008,None,,,stephen6,001,2023_Apr_30_2057,meta-mask2,2021.2.3,59.95372771307742,
,,,,73,0,73,0,,,,,,,,,,,,,,,,,136.76019460000043,137.6105602000007,73,imgs/4_stim.png,0.0875696783745646,0.8481584180565915,0.16912957338564777,137.76062470000033,137.79401170000074,137.8606972000007,137.89401380000072,e,1.3236596999995527,136.94358340000053,None,,,stephen6,001,2023_Apr_30_2057,meta-mask2,2021.2.3,59.95372771307742,
,,,,74,0,74,0,,,,,,,,,,,,,,,,,138.31088060000002,139.1279151000008,74,imgs/3_stim.png,0.01293990495041995,0.8073628186466866,0.07958216090810138,139.1779301000006,139.21125770000071,139.21125770000071,139.2445998000003,q,1.125020399999812,138.49428620000072,None,,,stephen6,001,2023_Apr_30_2057,meta-mask2,2021.2.3,59.95372771307742,
,,,,75,0,75,0,,,,,,,,,,,,,,,,,139.66145680000045,140.52845640000032,75,imgs/3_stim.png,0.05273284305767061,0.8575160622740725,0.33881504847266997,140.8452513000002,140.87863540000035,140.91195190000053,140.94530610000038,q,1.7094121000000086,139.84483060000002,None,,,stephen6,001,2023_Apr_30_2057,meta-mask2,2021.2.3,59.95372771307742,
,,,,76,0,76,0,,,,,,,,,,,,,,,,,141.59562430000005,142.22921870000027,76,imgs/4_stim.png,0.04498074688367699,0.6209313223516397,0.1272467978518797,142.32923480000045,142.36261840000043,142.39595430000008,142.42929490000006,q,1.059382800000094,141.7790089,None,,,stephen6,001,2023_Apr_30_2057,meta-mask2,2021.2.3,59.95372771307742,
,,,,77,0,77,0,,,,,,,,,,,,,,,,,142.8794583000008,143.62981740000032,77,imgs/2_stim.png,0.013768634728533518,0.739153576273236,0.3139266802535119,143.91324630000054,143.94662680000056,143.94662680000056,143.9799395,q,1.3584228999998231,143.0628802000001,None,,,stephen6,001,2023_Apr_30_2057,meta-mask2,2021.2.3,59.95372771307742,
,,,,78,0,78,0,,,,,,,,,,,,,,,,,144.46347980000064,145.18045500000062,78,imgs/2_stim.png,0.059831896727832984,0.7108205768311482,0.4362957234366372,145.59732010000062,145.6306910000003,145.66405250000025,145.69744830000036,e,1.2942626000003656,144.64692470000045,None,,,stephen6,001,2023_Apr_30_2057,meta-mask2,2021.2.3,59.95372771307742,
,,,,79,0,79,0,,,,,,,,,,,,,,,,,145.9808079000004,146.5476976,79,imgs/1_stim.png,0.020317492445060724,0.5617114389147837,0.41060871211728583,146.93125150000014,146.96453480000037,146.98126120000052,147.0145775000001,d,1.1560417000000598,146.16428070000075,None,,,stephen6,001,2023_Apr_30_2057,meta-mask2,2021.2.3,59.95372771307742,
,,,,80,0,80,0,,,,,,,,,,,,,,,,,147.3647189000003,148.1483988,80,imgs/1_stim.png,0.09261311715624437,0.7738818536571302,0.29630293993010604,148.41516160000083,148.44856940000045,148.5319472000001,148.56525650000003,a,1.0921754000000874,147.54812480000055,None,,,stephen6,001,2023_Apr_30_2057,meta-mask2,2021.2.3,59.95372771307742,
,,,,81,0,81,0,,,,,,,,,,,,,,,,,148.68201920000047,149.3822869000005,81,imgs/1_stim.png,0.0908384405023719,0.6902233484828852,0.28000325822725186,149.6323996000001,149.66570219999994,149.7490688000007,149.7824341000005,e,1.107893100000183,148.8653757000002,None,,,stephen6,001,2023_Apr_30_2057,meta-mask2,2021.2.3,59.95372771307742,
,,,,82,0,82,0,,,,,,,,,,,,,,,,,150.01585280000018,150.7829270000002,82,imgs/1_stim.png,0.08833229124616884,0.7600851403027897,0.21245505522216562,150.96643980000044,150.99965920000068,151.0830132000001,151.1163576000008,q,1.4817633000002388,150.19932420000077,None,,,stephen6,001,2023_Apr_30_2057,meta-mask2,2021.2.3,59.95372771307742,
,,,,83,0,83,0,,,,,,,,,,,,,,,,,151.71664240000064,152.50029450000056,83,imgs/4_stim.png,0.016457466697458095,0.7834718207379456,0.32982247661725317,152.81711150000046,152.8504309,152.8504309,152.88381160000063,q,1.6383154999994076,151.90004950000002,None,,,stephen6,001,2023_Apr_30_2057,meta-mask2,2021.2.3,59.95372771307742,
,,,,84,0,84,0,,,,,,,,,,,,,,,,,153.5840846000001,154.48449419999997,84,imgs/2_stim.png,0.09026413048518674,0.8996029899267034,0.3912553380011134,154.85130180000033,154.88467730000048,154.96800090000033,155.0013667000003,q,1.5839437999993606,153.76750080000056,None,,,stephen6,001,2023_Apr_30_2057,meta-mask2,2021.2.3,59.95372771307742,
,,,,85,0,85,0,,,,,,,,,,,,,,,,,155.38485630000014,156.3018899000008,85,imgs/1_stim.png,0.012637705141282094,0.905632719994226,0.09506725904416546,156.36859690000074,156.4019655000002,156.4019655000002,156.43532010000035,q,1.7320760000002338,155.56827480000084,None,,,stephen6,001,2023_Apr_30_2057,meta-mask2,2021.2.3,59.95372771307742,
,,,,86,0,86,0,,,,,,,,,,,,,,,,,157.33564550000028,158.1027126000008,86,imgs/4_stim.png,0.05959327146912526,0.7553885163188769,0.35038928049248214,158.41948260000026,158.45281090000026,158.50286700000015,158.53622220000034,q,3.5362076000001252,157.51908210000056,None,,,stephen6,001,2023_Apr_30_2057,meta-mask2,2021.2.3,59.95372771307742,
,,,,87,0,87,0,,,,,,,,,,,,,,,,,161.08728880000035,161.62087780000002,87,imgs/4_stim.png,0.08880216419394373,0.5317878956194043,0.47474247311525575,162.07106860000022,162.10436540000046,162.18775180000011,162.22110880000037,e,1.4604178999998112,161.2707104000001,None,,,stephen6,001,2023_Apr_30_2057,meta-mask2,2021.2.3,59.95372771307742,
,,,,88,0,88,0,,,,,,,,,,,,,,,,,162.7713642000008,163.62169859999995,88,imgs/2_stim.png,0.015933597781970656,0.8440913881314716,0.20983652975412598,163.8051464,163.83847830000013,163.83847830000013,163.87180940000053,q,1.2878492000008919,162.95475380000062,None,,,stephen6,001,2023_Apr_30_2057,meta-mask2,2021.2.3,59.95372771307742,
,,,,89,0,89,0,,,,,,,,,,,,,,,,,164.28867400000036,165.03897190000043,89,imgs/1_stim.png,0.04235838421785278,0.7407390526216753,0.02952677119528002,165.03897190000043,165.0723579000005,165.10569830000077,165.13933220000035,e,1.8561976999999388,164.47210300000006,None,,,stephen6,001,2023_Apr_30_2057,meta-mask2,2021.2.3,59.95372771307742,
,,,,90,0,90,0,,,,,,,,,,,,,,,,,166.37291880000066,166.93983040000057,90,imgs/1_stim.png,0.08987963739578313,0.5553528279955765,0.052739645958356174,166.9565119000008,166.98986850000074,167.0732233000008,167.10657450000053,a,0.9929599999995844,166.55633780000062,None,,,stephen6,001,2023_Apr_30_2057,meta-mask2,2021.2.3,59.95372771307742,
,,,,91,0,91,0,,,,,,,,,,,,,,,,,167.59007780000047,168.14039090000006,91,imgs/4_stim.png,0.08571277439339224,0.5377830128077865,0.12967006689290578,168.24033710000003,168.2737377000003,168.3404659000007,168.37385470000027,e,0.9747737000006964,167.77354040000046,None,,,stephen6,001,2023_Apr_30_2057,meta-mask2,2021.2.3,59.95372771307742,
,,,,92,0,92,0,,,,,,,,,,,,,,,,,168.79061610000008,169.72431750000032,92,imgs/4_stim.png,0.010698543221478337,0.9308313746403537,0.4563708293345802,170.15790130000005,170.19120660000044,170.19120660000044,170.22453020000012,e,1.7072397000001729,168.9740111000001,None,,,stephen6,001,2023_Apr_30_2057,meta-mask2,2021.2.3,59.95372771307742,
,,,,93,0,93,0,,,,,,,,,,,,,,,,,170.72482200000013,171.45846040000015,93,imgs/1_stim.png,0.04568044077849086,0.7335394665660382,0.46908875270676215,171.90869420000035,171.94193320000068,171.97529170000053,172.00866900000074,e,2.2299573999998756,170.90818949999993,None,,,stephen6,001,2023_Apr_30_2057,meta-mask2,2021.2.3,59.95372771307742,
,,,,94,0,94,0,,,,,,,,,,,,,,,,,173.17583530000047,173.92612530000042,94,imgs/3_stim.png,0.01987962440002527,0.7477024248642412,0.12118048844811946,174.02619380000033,174.05953339999996,174.05953339999996,174.09291050000047,q,1.3288536000000022,173.35925320000024,None,,,stephen6,001,2023_Apr_30_2057,meta-mask2,2021.2.3,59.95372771307742,
,,,,95,0,95,0,,,,,,,,,,,,,,,,,174.7264814,175.67692100000022,95,imgs/3_stim.png,0.02937771597733066,0.9374666744329216,0.3408401121963924,175.9937359000005,176.02708520000033,176.04375560000062,176.07707970000047,q,1.8424459000007118,174.90990070000043,None,,,stephen6,001,2023_Apr_30_2057,meta-mask2,2021.2.3,59.95372771307742,
,,,,96,0,96,0,,,,,,,,,,,,,,,,,176.79407410000022,177.7944653000004,96,imgs/1_stim.png,0.04989391827600823,0.9902780247637943,0.38280808426264956,178.1447033000004,178.17795220000062,178.2112904000005,178.24469490000047,e,2.0722085999996125,176.97745160000068,None,,,stephen6,001,2023_Apr_30_2057,meta-mask2,2021.2.3,59.95372771307742,
,,,,97,0,97,0,,,,,,,,,,,,,,,,,179.0950455000002,179.81202290000056,97,imgs/3_stim.png,0.02090508894613138,0.714214764091434,0.21162813240743272,179.99539510000068,180.02873660000023,180.0454578000008,180.0787930000006,q,1.455914600000142,179.27841850000004,None,,,stephen6,001,2023_Apr_30_2057,meta-mask2,2021.2.3,59.95372771307742,
,,,,98,0,98,0,,,,,,,,,,,,,,,,,180.77909350000027,181.7628336000007,98,imgs/4_stim.png,0.03553301872047548,0.9721522528364922,0.4509004665666933,182.17968670000027,182.21306390000063,182.2464288000001,182.27975060000063,e,1.641774599999735,180.96248620000006,None,,,stephen6,001,2023_Apr_30_2057,meta-mask2,2021.2.3,59.95372771307742,
,,,,99,0,99,0,,,,,,,,,,,,,,,,,182.6465590000007,183.29685210000025,99,imgs/4_stim.png,0.08556752366897599,0.6496821309043439,0.4566119171327779,183.73035230000005,183.7637205000001,183.84704170000077,183.88039340000068,e,1.499425599999995,182.82997030000024,None,,,stephen6,001,2023_Apr_30_2057,meta-mask2,2021.2.3,59.95372771307742,
,,,,,,,,,,,,,,,,,,,,,,,,,,,,,,,,,,,,,,,184.3472696000008,None,,,,,,,
